Time,header.seq,header.stamp.secs,header.stamp.nsecs,header.frame_id,IMU.header.seq,IMU.header.stamp.secs,IMU.header.stamp.nsecs,IMU.header.frame_id,IMU.orientation.x,IMU.orientation.y,IMU.orientation.z,IMU.orientation.w,IMU.orientation_covariance,IMU.angular_velocity.x,IMU.angular_velocity.y,IMU.angular_velocity.z,IMU.angular_velocity_covariance,IMU.linear_acceleration.x,IMU.linear_acceleration.y,IMU.linear_acceleration.z,IMU.linear_acceleration_covariance,MagField.header.seq,MagField.header.stamp.secs,MagField.header.stamp.nsecs,MagField.header.frame_id,MagField.magnetic_field.x,MagField.magnetic_field.y,MagField.magnetic_field.z,MagField.magnetic_field_covariance,VNYMR
1678251218.2565694,1,1678251218,239540338,IMU1_Frame,0,0,0,,0.07281517450604963,0.07185497564871414,0.7521142483378532,0.6510445225046918,"(0.0, 0.0, 0.0, 0.0, 0.0, 0.0, 0.0, 0.0, 0.0)",-0.099562,0.449566,-0.01435,"(0.0, 0.0, 0.0, 0.0, 0.0, 0.0, 0.0, 0.0, 0.0)",2.708,-1.997,-10.396,"(0.0, 0.0, 0.0, 0.0, 0.0, 0.0, 0.0, 0.0, 0.0)",0,0,0,,0.2964,-0.3648,0.4811,"(0.0, 0.0, 0.0, 0.0, 0.0, 0.0, 0.0, 0.0, 0.0)","b'$VNYMR,+098.146,-000.915,+011.708,+00.2964,-00.3648,+00.4811,+02.708,-01.997,-10.396,-00.099562,+00.449566,-00.014357*6D\r\n'"
1678251218.2783892,2,1678251218,264240980,IMU1_Frame,0,0,0,,0.06510013611088868,0.07528496806581567,0.7524335256729293,0.6511051645510717,"(0.0, 0.0, 0.0, 0.0, 0.0, 0.0, 0.0, 0.0, 0.0)",-0.143034,0.669044,-0.10755,"(0.0, 0.0, 0.0, 0.0, 0.0, 0.0, 0.0, 0.0, 0.0)",1.978,-1.757,-9.158,"(0.0, 0.0, 0.0, 0.0, 0.0, 0.0, 0.0, 0.0, 0.0)",0,0,0,,0.2059,-0.4362,0.5268,"(0.0, 0.0, 0.0, 0.0, 0.0, 0.0, 0.0, 0.0, 0.0)","b'$VNYMR,+098.259,+000.004,+011.424,+00.2059,-00.4362,+00.5268,+01.978,-01.757,-09.158,-00.143034,+00.669044,-00.107555*68\r\n'"
1678251218.3046412,3,1678251218,289256095,IMU1_Frame,0,0,0,,0.06008467359521602,0.07922291930679856,0.7518241194770802,0.651823637518599,"(0.0, 0.0, 0.0, 0.0, 0.0, 0.0, 0.0, 0.0, 0.0)",0.133937,0.28834,-0.14886,"(0.0, 0.0, 0.0, 0.0, 0.0, 0.0, 0.0, 0.0, 0.0)",1.799,-1.046,-7.391,"(0.0, 0.0, 0.0, 0.0, 0.0, 0.0, 0.0, 0.0, 0.0)",0,0,0,,0.1235,-0.4731,0.5481,"(0.0, 0.0, 0.0, 0.0, 0.0, 0.0, 0.0, 0.0, 0.0)","b'$VNYMR,+098.224,+000.741,+011.389,+00.1235,-00.4731,+00.5481,+01.799,-01.046,-07.391,+00.133937,+00.288340,-00.148864*60\r\n'"
1678251218.3282516,4,1678251218,314250707,IMU1_Frame,0,0,0,,0.06471411758272727,0.0822742019318215,0.7506928104333895,0.6523061727790025,"(0.0, 0.0, 0.0, 0.0, 0.0, 0.0, 0.0, 0.0, 0.0)",0.451527,-0.350023,-0.0233,"(0.0, 0.0, 0.0, 0.0, 0.0, 0.0, 0.0, 0.0, 0.0)",1.662,-1.248,-7.942,"(0.0, 0.0, 0.0, 0.0, 0.0, 0.0, 0.0, 0.0, 0.0)",0,0,0,,0.066,-0.4807,0.5761,"(0.0, 0.0, 0.0, 0.0, 0.0, 0.0, 0.0, 0.0, 0.0)","b'$VNYMR,+098.084,+000.583,+012.003,+00.0660,-00.4807,+00.5761,+01.662,-01.248,-07.942,+00.451527,-00.350023,-00.023304*60\r\n'"
1678251218.3547208,5,1678251218,339284658,IMU1_Frame,0,0,0,,0.0701328578629498,0.08436673844555596,0.7495059985035563,0.6528433149686238,"(0.0, 0.0, 0.0, 0.0, 0.0, 0.0, 0.0, 0.0, 0.0)",0.27529,-0.079964,-0.10149,"(0.0, 0.0, 0.0, 0.0, 0.0, 0.0, 0.0, 0.0, 0.0)",0.833,-1.248,-10.548,"(0.0, 0.0, 0.0, 0.0, 0.0, 0.0, 0.0, 0.0, 0.0)",0,0,0,,0.0278,-0.4809,0.6019,"(0.0, 0.0, 0.0, 0.0, 0.0, 0.0, 0.0, 0.0, 0.0)","b'$VNYMR,+097.918,+000.288,+012.594,+00.0278,-00.4809,+00.6019,+00.833,-01.248,-10.548,+00.275290,-00.079964,-00.101495*60\r\n'"
1678251218.3783104,6,1678251218,364279270,IMU1_Frame,0,0,0,,0.07133476394240641,0.08616409694665923,0.7486665217843804,0.6534413049463017,"(0.0, 0.0, 0.0, 0.0, 0.0, 0.0, 0.0, 0.0, 0.0)",0.249205,-0.015115,-0.08563,"(0.0, 0.0, 0.0, 0.0, 0.0, 0.0, 0.0, 0.0, 0.0)",0.23,-1.232,-9.578,"(0.0, 0.0, 0.0, 0.0, 0.0, 0.0, 0.0, 0.0, 0.0)",0,0,0,,-0.0072,-0.4789,0.6087,"(0.0, 0.0, 0.0, 0.0, 0.0, 0.0, 0.0, 0.0, 0.0)","b'$VNYMR,+097.808,+000.332,+012.841,-00.0072,-00.4789,+00.6087,+00.230,-01.232,-09.578,+00.249205,-00.015115,-00.085631*62\r\n'"
1678251218.404613,7,1678251218,389280080,IMU1_Frame,0,0,0,,0.08087514779874003,0.08919967901373166,0.7467726075105203,0.6540896730604431,"(0.0, 0.0, 0.0, 0.0, 0.0, 0.0, 0.0, 0.0, 0.0)",0.915526,-0.68672,0.00591,"(0.0, 0.0, 0.0, 0.0, 0.0, 0.0, 0.0, 0.0, 0.0)",-0.59,-1.772,-9.283,"(0.0, 0.0, 0.0, 0.0, 0.0, 0.0, 0.0, 0.0, 0.0)",0,0,0,,-0.0274,-0.4762,0.6336,"(0.0, 0.0, 0.0, 0.0, 0.0, 0.0, 0.0, 0.0, 0.0)","b'$VNYMR,+097.542,-000.235,+013.829,-00.0274,-00.4762,+00.6336,-00.590,-01.772,-09.283,+00.915526,-00.686720,+00.005917*62\r\n'"
1678251218.447413,8,1678251218,414193868,IMU1_Frame,0,0,0,,0.09147055663772657,0.09250163999633146,0.7446947901708453,0.654603890424411,"(0.0, 0.0, 0.0, 0.0, 0.0, 0.0, 0.0, 0.0, 0.0)",0.288901,-0.103972,-0.07193,"(0.0, 0.0, 0.0, 0.0, 0.0, 0.0, 0.0, 0.0, 0.0)",-1.288,-2.954,-10.84,"(0.0, 0.0, 0.0, 0.0, 0.0, 0.0, 0.0, 0.0, 0.0)",0,0,0,,-0.0401,-0.467,0.6485,"(0.0, 0.0, 0.0, 0.0, 0.0, 0.0, 0.0, 0.0, 0.0)","b'$VNYMR,+097.254,-000.867,+014.925,-00.0401,-00.4670,+00.6485,-01.288,-02.954,-10.840,+00.288901,-00.103972,-00.071932*60\r\n'"
1678251218.4953854,9,1678251218,439198970,IMU1_Frame,0,0,0,,0.08556973271763024,0.09212362213701994,0.7433724838244574,0.6569538867984919,"(0.0, 0.0, 0.0, 0.0, 0.0, 0.0, 0.0, 0.0, 0.0)",-0.457181,0.312296,-0.21049,"(0.0, 0.0, 0.0, 0.0, 0.0, 0.0, 0.0, 0.0, 0.0)",-1.414,-0.898,-8.757,"(0.0, 0.0, 0.0, 0.0, 0.0, 0.0, 0.0, 0.0, 0.0)",0,0,0,,-0.0667,-0.4731,0.6644,"(0.0, 0.0, 0.0, 0.0, 0.0, 0.0, 0.0, 0.0, 0.0)","b'$VNYMR,+097.018,-000.354,+014.442,-00.0667,-00.4731,+00.6644,-01.414,-00.898,-08.757,-00.457181,+00.312296,-00.210498*6B\r\n'"
1678251218.495462,10,1678251218,464083433,IMU1_Frame,0,0,0,,0.08780677229250215,0.08857015280549177,0.745451452839933,0.654788080397328,"(0.0, 0.0, 0.0, 0.0, 0.0, 0.0, 0.0, 0.0, 0.0)",0.299318,-0.703643,0.46431,"(0.0, 0.0, 0.0, 0.0, 0.0, 0.0, 0.0, 0.0, 0.0)",-2.521,-1.709,-9.702,"(0.0, 0.0, 0.0, 0.0, 0.0, 0.0, 0.0, 0.0, 0.0)",0,0,0,,-0.0988,-0.4845,0.6841,"(0.0, 0.0, 0.0, 0.0, 0.0, 0.0, 0.0, 0.0, 0.0)","b'$VNYMR,+097.302,-000.855,+014.304,-00.0988,-00.4845,+00.6841,-02.521,-01.709,-09.702,+00.299318,-00.703643,+00.464311*6D\r\n'"
1678251218.5433748,11,1678251218,489061117,IMU1_Frame,0,0,0,,0.09686162071323663,0.08511455912115572,0.7482759343439501,0.6507353258738185,"(0.0, 0.0, 0.0, 0.0, 0.0, 0.0, 0.0, 0.0, 0.0)",0.120278,-0.445054,0.41704,"(0.0, 0.0, 0.0, 0.0, 0.0, 0.0, 0.0, 0.0, 0.0)",-2.443,-1.878,-11.543,"(0.0, 0.0, 0.0, 0.0, 0.0, 0.0, 0.0, 0.0, 0.0)",0,0,0,,-0.1285,-0.4772,0.71,"(0.0, 0.0, 0.0, 0.0, 0.0, 0.0, 0.0, 0.0, 0.0)","b'$VNYMR,+097.724,-001.959,+014.690,-00.1285,-00.4772,+00.7100,-02.443,-01.878,-11.543,+00.120278,-00.445054,+00.417041*6F\r\n'"
1678251218.5434513,12,1678251218,514099121,IMU1_Frame,0,0,0,,0.09283634894079487,0.08070542028908326,0.7519797669369349,0.6476067306388797,"(0.0, 0.0, 0.0, 0.0, 0.0, 0.0, 0.0, 0.0, 0.0)",-0.650467,0.227359,0.34295,"(0.0, 0.0, 0.0, 0.0, 0.0, 0.0, 0.0, 0.0, 0.0)",-2.791,-2.172,-9.637,"(0.0, 0.0, 0.0, 0.0, 0.0, 0.0, 0.0, 0.0, 0.0)",0,0,0,,-0.1773,-0.4726,0.7292,"(0.0, 0.0, 0.0, 0.0, 0.0, 0.0, 0.0, 0.0, 0.0)","b'$VNYMR,+098.283,-002.011,+013.991,-00.1773,-00.4726,+00.7292,-02.791,-02.172,-09.637,-00.650467,+00.227359,+00.342955*68\r\n'"
1678251218.59139,13,1678251218,539118051,IMU1_Frame,0,0,0,,0.0942534895875399,0.07770483271663929,0.7550169948941672,0.6442263391805956,"(0.0, 0.0, 0.0, 0.0, 0.0, 0.0, 0.0, 0.0, 0.0)",0.343652,-0.501471,0.55195,"(0.0, 0.0, 0.0, 0.0, 0.0, 0.0, 0.0, 0.0, 0.0)",-3.375,-1.063,-8.934,"(0.0, 0.0, 0.0, 0.0, 0.0, 0.0, 0.0, 0.0, 0.0)",0,0,0,,-0.228,-0.4569,0.7596,"(0.0, 0.0, 0.0, 0.0, 0.0, 0.0, 0.0, 0.0, 0.0)","b'$VNYMR,+098.761,-002.419,+013.827,-00.2280,-00.4569,+00.7596,-03.375,-01.063,-08.934,+00.343652,-00.501471,+00.551959*64\r\n'"
1678251218.5914314,14,1678251218,564049005,IMU1_Frame,0,0,0,,0.10474984360948086,0.07596239617576521,0.7588912380504595,0.6382329303955308,"(0.0, 0.0, 0.0, 0.0, 0.0, 0.0, 0.0, 0.0, 0.0)",0.286457,-0.573616,0.61744,"(0.0, 0.0, 0.0, 0.0, 0.0, 0.0, 0.0, 0.0, 0.0)",-4.425,-1.967,-9.744,"(0.0, 0.0, 0.0, 0.0, 0.0, 0.0, 0.0, 0.0, 0.0)",0,0,0,,-0.254,-0.4196,0.798,"(0.0, 0.0, 0.0, 0.0, 0.0, 0.0, 0.0, 0.0, 0.0)","b'$VNYMR,+099.421,-003.556,+014.447,-00.2540,-00.4196,+00.7980,-04.425,-01.967,-09.744,+00.286457,-00.573616,+00.617443*6E\r\n'"
1678251218.6354182,15,1678251218,588954687,IMU1_Frame,0,0,0,,0.10354813690738245,0.07118289736553113,0.7617346196789611,0.6355872462913387,"(0.0, 0.0, 0.0, 0.0, 0.0, 0.0, 0.0, 0.0, 0.0)",-0.683325,0.137103,0.08098,"(0.0, 0.0, 0.0, 0.0, 0.0, 0.0, 0.0, 0.0, 0.0)",-3.757,-2.114,-9.795,"(0.0, 0.0, 0.0, 0.0, 0.0, 0.0, 0.0, 0.0, 0.0)",0,0,0,,-0.2642,-0.3882,0.8203,"(0.0, 0.0, 0.0, 0.0, 0.0, 0.0, 0.0, 0.0, 0.0)","b'$VNYMR,+099.846,-003.857,+013.923,-00.2642,-00.3882,+00.8203,-03.757,-02.114,-09.795,-00.683325,+00.137103,+00.080982*6C\r\n'"
1678251218.6354659,16,1678251218,614000797,IMU1_Frame,0,0,0,,0.09404068475608142,0.06403380452846066,0.7629224478518166,0.6364003143085414,"(0.0, 0.0, 0.0, 0.0, 0.0, 0.0, 0.0, 0.0, 0.0)",-0.960707,0.063075,0.03275,"(0.0, 0.0, 0.0, 0.0, 0.0, 0.0, 0.0, 0.0, 0.0)",-3.729,-0.843,-6.834,"(0.0, 0.0, 0.0, 0.0, 0.0, 0.0, 0.0, 0.0, 0.0)",0,0,0,,-0.2578,-0.3872,0.8128,"(0.0, 0.0, 0.0, 0.0, 0.0, 0.0, 0.0, 0.0, 0.0)","b'$VNYMR,+099.941,-003.554,+012.581,-00.2578,-00.3872,+00.8128,-03.729,-00.843,-06.834,-00.960707,+00.063075,+00.032755*6E\r\n'"
1678251218.6793978,17,1678251218,638980865,IMU1_Frame,0,0,0,,0.09375635627140913,0.0548025606610725,0.7637877746141438,0.6362661867125046,"(0.0, 0.0, 0.0, 0.0, 0.0, 0.0, 0.0, 0.0, 0.0)",-0.440286,-0.685161,0.17777,"(0.0, 0.0, 0.0, 0.0, 0.0, 0.0, 0.0, 0.0, 0.0)",-4.407,-0.543,-8.511,"(0.0, 0.0, 0.0, 0.0, 0.0, 0.0, 0.0, 0.0, 0.0)",0,0,0,,-0.2366,-0.3955,0.7766,"(0.0, 0.0, 0.0, 0.0, 0.0, 0.0, 0.0, 0.0, 0.0)","b'$VNYMR,+099.975,-004.214,+011.746,-00.2366,-00.3955,+00.7766,-04.407,-00.543,-08.511,-00.440286,-00.685161,+00.177772*62\r\n'"
1678251218.6794431,18,1678251218,663929939,IMU1_Frame,0,0,0,,0.09475915353245368,0.0449419940966284,0.7647744120054977,0.6357051350508951,"(0.0, 0.0, 0.0, 0.0, 0.0, 0.0, 0.0, 0.0, 0.0)",-0.657865,-0.356261,0.04081,"(0.0, 0.0, 0.0, 0.0, 0.0, 0.0, 0.0, 0.0, 0.0)",-5.473,-1.479,-11.553,"(0.0, 0.0, 0.0, 0.0, 0.0, 0.0, 0.0, 0.0, 0.0)",0,0,0,,-0.225,-0.4091,0.7249,"(0.0, 0.0, 0.0, 0.0, 0.0, 0.0, 0.0, 0.0, 0.0)","b'$VNYMR,+100.048,-005.037,+010.950,-00.2250,-00.4091,+00.7249,-05.473,-01.479,-11.553,-00.657865,-00.356261,+00.040818*6C\r\n'"
1678251218.7233129,19,1678251218,688965082,IMU1_Frame,0,0,0,,0.09000475469932348,0.03805895492584059,0.7639996887668269,0.637773577099004,"(0.0, 0.0, 0.0, 0.0, 0.0, 0.0, 0.0, 0.0, 0.0)",-0.594345,0.033057,-0.22589,"(0.0, 0.0, 0.0, 0.0, 0.0, 0.0, 0.0, 0.0, 0.0)",-5.984,-1.049,-11.197,"(0.0, 0.0, 0.0, 0.0, 0.0, 0.0, 0.0, 0.0, 0.0)",0,0,0,,-0.226,-0.4157,0.6817,"(0.0, 0.0, 0.0, 0.0, 0.0, 0.0, 0.0, 0.0, 0.0)","b'$VNYMR,+099.844,-005.105,+010.000,-00.2260,-00.4157,+00.6817,-05.984,-01.049,-11.197,-00.594345,+00.033057,-00.225890*60\r\n'"
1678251218.7255387,20,1678251218,713937520,IMU1_Frame,0,0,0,,0.08728124609538532,0.0353295485379979,0.7625422467280873,0.6400493176584277,"(0.0, 0.0, 0.0, 0.0, 0.0, 0.0, 0.0, 0.0, 0.0)",-0.120622,-0.031699,-0.16564,"(0.0, 0.0, 0.0, 0.0, 0.0, 0.0, 0.0, 0.0, 0.0)",-6.016,-0.585,-9.831,"(0.0, 0.0, 0.0, 0.0, 0.0, 0.0, 0.0, 0.0, 0.0)",0,0,0,,-0.2259,-0.4167,0.641,"(0.0, 0.0, 0.0, 0.0, 0.0, 0.0, 0.0, 0.0, 0.0)","b'$VNYMR,+099.560,-005.042,+009.570,-00.2259,-00.4167,+00.6410,-06.016,-00.585,-09.831,-00.120622,-00.031699,-00.165645*66\r\n'"
1678251218.7671826,21,1678251218,738624334,IMU1_Frame,0,0,0,,0.09030559743626713,0.03648976705265298,0.7607915211962604,0.6416460529357304,"(0.0, 0.0, 0.0, 0.0, 0.0, 0.0, 0.0, 0.0, 0.0)",0.330619,-0.140728,-0.22389,"(0.0, 0.0, 0.0, 0.0, 0.0, 0.0, 0.0, 0.0, 0.0)",-6.25,-0.609,-9.378,"(0.0, 0.0, 0.0, 0.0, 0.0, 0.0, 0.0, 0.0, 0.0)",0,0,0,,-0.2236,-0.4101,0.6245,"(0.0, 0.0, 0.0, 0.0, 0.0, 0.0, 0.0, 0.0, 0.0)","b'$VNYMR,+099.261,-005.197,+009.911,-00.2236,-00.4101,+00.6245,-06.250,-00.609,-09.378,+00.330619,-00.140728,-00.223890*6A\r\n'"
1678251218.8112266,22,1678251218,763618230,IMU1_Frame,0,0,0,,0.08878797057637085,0.03653089883584372,0.7613017775766172,0.6412501798595127,"(0.0, 0.0, 0.0, 0.0, 0.0, 0.0, 0.0, 0.0, 0.0)",-0.47961,0.273828,0.20976,"(0.0, 0.0, 0.0, 0.0, 0.0, 0.0, 0.0, 0.0, 0.0)",-6.516,-0.148,-10.189,"(0.0, 0.0, 0.0, 0.0, 0.0, 0.0, 0.0, 0.0, 0.0)",0,0,0,,-0.2268,-0.4067,0.6384,"(0.0, 0.0, 0.0, 0.0, 0.0, 0.0, 0.0, 0.0, 0.0)","b'$VNYMR,+099.350,-005.068,+009.797,-00.2268,-00.4067,+00.6384,-06.516,-00.148,-10.189,-00.479610,+00.273828,+00.209764*68\r\n'"
1678251218.8112364,23,1678251218,788507699,IMU1_Frame,0,0,0,,0.08299320560354018,0.03236393649123837,0.7597818262023313,0.6440467995503821,"(0.0, 0.0, 0.0, 0.0, 0.0, 0.0, 0.0, 0.0, 0.0)",-0.510182,0.155972,-0.23917,"(0.0, 0.0, 0.0, 0.0, 0.0, 0.0, 0.0, 0.0, 0.0)",-7.139,-0.667,-11.151,"(0.0, 0.0, 0.0, 0.0, 0.0, 0.0, 0.0, 0.0, 0.0)",0,0,0,,-0.2272,-0.4256,0.6551,"(0.0, 0.0, 0.0, 0.0, 0.0, 0.0, 0.0, 0.0, 0.0)","b'$VNYMR,+099.044,-004.843,+009.012,-00.2272,-00.4256,+00.6551,-07.139,-00.667,-11.151,-00.510182,+00.155972,-00.239178*62\r\n'"
1678251218.8592527,24,1678251218,814608812,IMU1_Frame,0,0,0,,0.07965291828886889,0.03193354700051386,0.7599718604739365,0.6442658088644906,"(0.0, 0.0, 0.0, 0.0, 0.0, 0.0, 0.0, 0.0, 0.0)",0.1042,0.261877,0.12979,"(0.0, 0.0, 0.0, 0.0, 0.0, 0.0, 0.0, 0.0, 0.0)",-8.03,-0.669,-12.498,"(0.0, 0.0, 0.0, 0.0, 0.0, 0.0, 0.0, 0.0, 0.0)",0,0,0,,-0.2244,-0.4425,0.7024,"(0.0, 0.0, 0.0, 0.0, 0.0, 0.0, 0.0, 0.0, 0.0)","b'$VNYMR,+099.071,-004.584,+008.723,-00.2244,-00.4425,+00.7024,-08.030,-00.669,-12.498,+00.104200,+00.261877,+00.129791*66\r\n'"
1678251218.8592684,25,1678251218,838796615,IMU1_Frame,0,0,0,,0.0771449906368667,0.038462349997493955,0.7609025360839251,0.6431147865143199,"(0.0, 0.0, 0.0, 0.0, 0.0, 0.0, 0.0, 0.0, 0.0)",0.248102,0.669908,-0.05793,"(0.0, 0.0, 0.0, 0.0, 0.0, 0.0, 0.0, 0.0, 0.0)",-9.626,-1.303,-10.906,"(0.0, 0.0, 0.0, 0.0, 0.0, 0.0, 0.0, 0.0, 0.0)",0,0,0,,-0.2352,-0.4423,0.7618,"(0.0, 0.0, 0.0, 0.0, 0.0, 0.0, 0.0, 0.0, 0.0)","b'$VNYMR,+099.281,-003.895,+009.098,-00.2352,-00.4423,+00.7618,-09.626,-01.303,-10.906,+00.248102,+00.669908,-00.057935*6F\r\n'"
1678251218.907384,26,1678251218,864544868,IMU1_Frame,0,0,0,,0.06965470763101188,0.046903138090177134,0.7579578655312049,0.646875715591111,"(0.0, 0.0, 0.0, 0.0, 0.0, 0.0, 0.0, 0.0, 0.0)",-0.006384,0.882435,-0.69888,"(0.0, 0.0, 0.0, 0.0, 0.0, 0.0, 0.0, 0.0, 0.0)",-9.73,-1.183,-8.958,"(0.0, 0.0, 0.0, 0.0, 0.0, 0.0, 0.0, 0.0, 0.0)",0,0,0,,-0.2683,-0.4482,0.798,"(0.0, 0.0, 0.0, 0.0, 0.0, 0.0, 0.0, 0.0, 0.0)","b'$VNYMR,+098.833,-002.574,+009.287,-00.2683,-00.4482,+00.7980,-09.730,-01.183,-08.958,-00.006384,+00.882435,-00.698887*67\r\n'"
1678251218.9074411,27,1678251218,889118432,IMU1_Frame,0,0,0,,0.061363780295395305,0.05231749766955474,0.7525077115593435,0.6536279598893964,"(0.0, 0.0, 0.0, 0.0, 0.0, 0.0, 0.0, 0.0, 0.0)",-0.09022,0.586678,-0.73934,"(0.0, 0.0, 0.0, 0.0, 0.0, 0.0, 0.0, 0.0, 0.0)",-7.717,-0.58,-7.871,"(0.0, 0.0, 0.0, 0.0, 0.0, 0.0, 0.0, 0.0, 0.0)",0,0,0,,-0.273,-0.4837,0.7525,"(0.0, 0.0, 0.0, 0.0, 0.0, 0.0, 0.0, 0.0, 0.0)","b'$VNYMR,+097.935,-001.373,+009.149,-00.2730,-00.4837,+00.7525,-07.717,-00.580,-07.871,-00.090220,+00.586678,-00.739340*64\r\n'"
1678251218.9513862,28,1678251218,914671182,IMU1_Frame,0,0,0,,0.055570892495973745,0.053582650522185984,0.7489950600168962,0.6580632002630935,"(0.0, 0.0, 0.0, 0.0, 0.0, 0.0, 0.0, 0.0, 0.0)",-0.603193,0.250914,-0.20471,"(0.0, 0.0, 0.0, 0.0, 0.0, 0.0, 0.0, 0.0, 0.0)",-7.196,-3.8,-7.68,"(0.0, 0.0, 0.0, 0.0, 0.0, 0.0, 0.0, 0.0, 0.0)",0,0,0,,-0.2194,-0.5239,0.7046,"(0.0, 0.0, 0.0, 0.0, 0.0, 0.0, 0.0, 0.0, 0.0)","b'$VNYMR,+097.339,-000.729,+008.825,-00.2194,-00.5239,+00.7046,-07.196,-03.800,-07.680,-00.603193,+00.250914,-00.204719*63\r\n'"
1678251218.9557605,29,1678251218,938700914,IMU1_Frame,0,0,0,,0.05935263553688575,0.05831894717677082,0.7456341797315331,0.6611397999448394,"(0.0, 0.0, 0.0, 0.0, 0.0, 0.0, 0.0, 0.0, 0.0)",0.411366,0.009743,-0.04815,"(0.0, 0.0, 0.0, 0.0, 0.0, 0.0, 0.0, 0.0, 0.0)",-3.76,1.728,-10.303,"(0.0, 0.0, 0.0, 0.0, 0.0, 0.0, 0.0, 0.0, 0.0)",0,0,0,,-0.1442,-0.5346,0.6696,"(0.0, 0.0, 0.0, 0.0, 0.0, 0.0, 0.0, 0.0, 0.0)","b'$VNYMR,+096.820,-000.653,+009.524,-00.1442,-00.5346,+00.6696,-03.760,+01.728,-10.303,+00.411366,+00.009743,-00.048158*68\r\n'"
1678251218.9994574,30,1678251218,964505672,IMU1_Frame,0,0,0,,0.05701995261826505,0.06272572781799553,0.744045243310287,0.6627298725577786,"(0.0, 0.0, 0.0, 0.0, 0.0, 0.0, 0.0, 0.0, 0.0)",-0.179181,0.793851,-0.47852,"(0.0, 0.0, 0.0, 0.0, 0.0, 0.0, 0.0, 0.0, 0.0)",-4.439,-2.219,-10.598,"(0.0, 0.0, 0.0, 0.0, 0.0, 0.0, 0.0, 0.0, 0.0)",0,0,0,,-0.0907,-0.5159,0.644,"(0.0, 0.0, 0.0, 0.0, 0.0, 0.0, 0.0, 0.0, 0.0)","b'$VNYMR,+096.608,-000.098,+009.725,-00.0907,-00.5159,+00.6440,-04.439,-02.219,-10.598,-00.179181,+00.793851,-00.478527*6D\r\n'"
1678251219.047397,31,1678251218,989530801,IMU1_Frame,0,0,0,,0.04412516788330976,0.0681278801959466,0.7397105432637558,0.6680118813941228,"(0.0, 0.0, 0.0, 0.0, 0.0, 0.0, 0.0, 0.0, 0.0)",-0.159067,0.767615,-0.48891,"(0.0, 0.0, 0.0, 0.0, 0.0, 0.0, 0.0, 0.0, 0.0)",-1.356,0.811,-6.489,"(0.0, 0.0, 0.0, 0.0, 0.0, 0.0, 0.0, 0.0, 0.0)",0,0,0,,-0.0621,-0.5221,0.6117,"(0.0, 0.0, 0.0, 0.0, 0.0, 0.0, 0.0, 0.0, 0.0)","b'$VNYMR,+095.950,+001.475,+009.195,-00.0621,-00.5221,+00.6117,-01.356,+00.811,-06.489,-00.159067,+00.767615,-00.488912*61\r\n'"
1678251219.047457,32,1678251219,14524936,IMU1_Frame,0,0,0,,0.05231439493674029,0.07260553901048118,0.7370545899967164,0.6698822069231072,"(0.0, 0.0, 0.0, 0.0, 0.0, 0.0, 0.0, 0.0, 0.0)",1.040706,-0.834412,-0.01982,"(0.0, 0.0, 0.0, 0.0, 0.0, 0.0, 0.0, 0.0, 0.0)",1.265,0.728,-6.554,"(0.0, 0.0, 0.0, 0.0, 0.0, 0.0, 0.0, 0.0, 0.0)",0,0,0,,-0.0183,-0.5076,0.6036,"(0.0, 0.0, 0.0, 0.0, 0.0, 0.0, 0.0, 0.0, 0.0)","b'$VNYMR,+095.570,+001.155,+010.204,-00.0183,-00.5076,+00.6036,+01.265,+00.728,-06.554,+01.040706,-00.834412,-00.019829*64\r\n'"
1678251219.0914474,33,1678251219,39402246,IMU1_Frame,0,0,0,,0.06383630944578854,0.0710196811869717,0.7347957534278394,0.671532822150084,"(0.0, 0.0, 0.0, 0.0, 0.0, 0.0, 0.0, 0.0, 0.0)",-0.108984,-0.365839,-0.14767,"(0.0, 0.0, 0.0, 0.0, 0.0, 0.0, 0.0, 0.0, 0.0)",2.053,-0.851,-10.597,"(0.0, 0.0, 0.0, 0.0, 0.0, 0.0, 0.0, 0.0, 0.0)",0,0,0,,0.0413,-0.4968,0.5909,"(0.0, 0.0, 0.0, 0.0, 0.0, 0.0, 0.0, 0.0, 0.0)","b'$VNYMR,+095.160,+000.090,+010.959,+00.0413,-00.4968,+00.5909,+02.053,-00.851,-10.597,-00.108984,-00.365839,-00.147679*6E\r\n'"
1678251219.091479,34,1678251219,64490795,IMU1_Frame,0,0,0,,0.05693461478853208,0.07017810519572039,0.7339516903988836,0.6731629812687572,"(0.0, 0.0, 0.0, 0.0, 0.0, 0.0, 0.0, 0.0, 0.0)",-0.406122,0.705983,-0.02321,"(0.0, 0.0, 0.0, 0.0, 0.0, 0.0, 0.0, 0.0, 0.0)",3.675,0.668,-10.963,"(0.0, 0.0, 0.0, 0.0, 0.0, 0.0, 0.0, 0.0, 0.0)",0,0,0,,0.1095,-0.4884,0.5607,"(0.0, 0.0, 0.0, 0.0, 0.0, 0.0, 0.0, 0.0, 0.0)","b'$VNYMR,+095.004,+000.625,+010.351,+00.1095,-00.4884,+00.5607,+03.675,+00.668,-10.963,-00.406122,+00.705983,-00.023218*63\r\n'"
1678251219.135377,35,1678251219,89491128,IMU1_Frame,0,0,0,,0.05333169049464374,0.0732315474396645,0.7358075737333795,0.6711036325972114,"(0.0, 0.0, 0.0, 0.0, 0.0, 0.0, 0.0, 0.0, 0.0)",0.265791,-0.004463,0.30772,"(0.0, 0.0, 0.0, 0.0, 0.0, 0.0, 0.0, 0.0, 0.0)",5.152,-0.102,-6.618,"(0.0, 0.0, 0.0, 0.0, 0.0, 0.0, 0.0, 0.0, 0.0)",0,0,0,,0.1918,-0.4525,0.5355,"(0.0, 0.0, 0.0, 0.0, 0.0, 0.0, 0.0, 0.0, 0.0)","b'$VNYMR,+095.369,+001.135,+010.334,+00.1918,-00.4525,+00.5355,+05.152,-00.102,-06.618,+00.265791,-00.004463,+00.307727*68\r\n'"
1678251219.135434,36,1678251219,114405155,IMU1_Frame,0,0,0,,0.06434781849914571,0.07083420581998497,0.7372159465245453,0.6688456636102024,"(0.0, 0.0, 0.0, 0.0, 0.0, 0.0, 0.0, 0.0, 0.0)",0.377111,-1.141872,0.19337,"(0.0, 0.0, 0.0, 0.0, 0.0, 0.0, 0.0, 0.0, 0.0)",5.108,-2.494,-6.93,"(0.0, 0.0, 0.0, 0.0, 0.0, 0.0, 0.0, 0.0, 0.0)",0,0,0,,0.3209,-0.3588,0.488,"(0.0, 0.0, 0.0, 0.0, 0.0, 0.0, 0.0, 0.0, 0.0)","b'$VNYMR,+095.567,-000.007,+010.983,+00.3209,-00.3588,+00.4880,+05.108,-02.494,-06.930,+00.377111,-01.141872,+00.193372*62\r\n'"
1678251219.179441,37,1678251219,139341115,IMU1_Frame,0,0,0,,0.07581159763475563,0.06295472358233252,0.7362216620302147,0.6695274219927115,"(0.0, 0.0, 0.0, 0.0, 0.0, 0.0, 0.0, 0.0, 0.0)",-0.021595,-1.041717,0.04443,"(0.0, 0.0, 0.0, 0.0, 0.0, 0.0, 0.0, 0.0, 0.0)",5.028,-0.66,-9.702,"(0.0, 0.0, 0.0, 0.0, 0.0, 0.0, 0.0, 0.0, 0.0)",0,0,0,,0.4182,-0.1472,0.3749,"(0.0, 0.0, 0.0, 0.0, 0.0, 0.0, 0.0, 0.0, 0.0)","b'$VNYMR,+095.279,-001.566,+011.203,+00.4182,-00.1472,+00.3749,+05.028,-00.660,-09.702,-00.021595,-01.041717,+00.044430*66\r\n'"
1678251219.1796827,38,1678251219,164382219,IMU1_Frame,0,0,0,,0.08360252858186056,0.05502622164937628,0.7373712129697022,0.6680317555545566,"(0.0, 0.0, 0.0, 0.0, 0.0, 0.0, 0.0, 0.0, 0.0)",0.048323,-0.831137,0.33268,"(0.0, 0.0, 0.0, 0.0, 0.0, 0.0, 0.0, 0.0, 0.0)",5.478,-0.81,-10.783,"(0.0, 0.0, 0.0, 0.0, 0.0, 0.0, 0.0, 0.0, 0.0)",0,0,0,,0.2066,0.0956,0.1678,"(0.0, 0.0, 0.0, 0.0, 0.0, 0.0, 0.0, 0.0, 0.0)","b'$VNYMR,+095.371,-002.853,+011.133,+00.2066,+00.0956,+00.1678,+05.478,-00.810,-10.783,+00.048323,-00.831137,+00.332688*65\r\n'"
1678251219.2234225,39,1678251219,189341545,IMU1_Frame,0,0,0,,0.09700498333360981,0.05024706896911202,0.7389314032819917,0.6648651340777062,"(0.0, 0.0, 0.0, 0.0, 0.0, 0.0, 0.0, 0.0, 0.0)",0.710643,-1.295421,0.25235,"(0.0, 0.0, 0.0, 0.0, 0.0, 0.0, 0.0, 0.0, 0.0)",5.775,-2.553,-8.876,"(0.0, 0.0, 0.0, 0.0, 0.0, 0.0, 0.0, 0.0, 0.0)",0,0,0,,-0.1461,0.0207,0.2468,"(0.0, 0.0, 0.0, 0.0, 0.0, 0.0, 0.0, 0.0, 0.0)","b'$VNYMR,+095.588,-004.390,+011.762,-00.1461,+00.0207,+00.2468,+05.775,-02.553,-08.876,+00.710643,-01.295421,+00.252355*6A\r\n'"
1678251219.2714365,40,1678251219,214408159,IMU1_Frame,0,0,0,,0.11643227719226122,0.04365184096361931,0.7419290818148537,0.6588469315142019,"(0.0, 0.0, 0.0, 0.0, 0.0, 0.0, 0.0, 0.0, 0.0)",0.32223,-1.537595,1.01389,"(0.0, 0.0, 0.0, 0.0, 0.0, 0.0, 0.0, 0.0, 0.0)",7.387,-0.957,-10.16,"(0.0, 0.0, 0.0, 0.0, 0.0, 0.0, 0.0, 0.0, 0.0)",0,0,0,,-0.1259,-0.126,0.4319,"(0.0, 0.0, 0.0, 0.0, 0.0, 0.0, 0.0, 0.0, 0.0)","b'$VNYMR,+096.052,-006.618,+012.689,-00.1259,-00.1260,+00.4319,+07.387,-00.957,-10.160,+00.322230,-01.537595,+01.013890*61\r\n'"
1678251219.2714736,41,1678251219,239525318,IMU1_Frame,0,0,0,,0.120742773871127,0.030259503811661946,0.7454417676818024,0.6548451083900738,"(0.0, 0.0, 0.0, 0.0, 0.0, 0.0, 0.0, 0.0, 0.0)",-0.844335,-0.55267,0.09678,"(0.0, 0.0, 0.0, 0.0, 0.0, 0.0, 0.0, 0.0, 0.0)",6.398,-3.819,-13.591,"(0.0, 0.0, 0.0, 0.0, 0.0, 0.0, 0.0, 0.0, 0.0)",0,0,0,,-0.0579,-0.1712,0.4873,"(0.0, 0.0, 0.0, 0.0, 0.0, 0.0, 0.0, 0.0, 0.0)","b'$VNYMR,+096.565,-008.070,+011.846,-00.0579,-00.1712,+00.4873,+06.398,-03.819,-13.591,-00.844335,-00.552670,+00.096783*67\r\n'"
1678251219.315409,42,1678251219,264288425,IMU1_Frame,0,0,0,,0.1211722795019988,0.02256917599734902,0.7441023965009625,0.656596934577534,"(0.0, 0.0, 0.0, 0.0, 0.0, 0.0, 0.0, 0.0, 0.0)",-0.140098,-0.610083,0.24363,"(0.0, 0.0, 0.0, 0.0, 0.0, 0.0, 0.0, 0.0, 0.0)",8.897,4.13,-13.674,"(0.0, 0.0, 0.0, 0.0, 0.0, 0.0, 0.0, 0.0, 0.0)",0,0,0,,-0.0253,-0.1899,0.5061,"(0.0, 0.0, 0.0, 0.0, 0.0, 0.0, 0.0, 0.0, 0.0)","b'$VNYMR,+096.295,-008.667,+011.241,-00.0253,-00.1899,+00.5061,+08.897,+04.130,-13.674,-00.140098,-00.610083,+00.243631*6E\r\n'"
1678251219.31546,43,1678251219,289401054,IMU1_Frame,0,0,0,,0.12827684515441215,0.021054711883778505,0.7495276651290258,0.6490839924932311,"(0.0, 0.0, 0.0, 0.0, 0.0, 0.0, 0.0, 0.0, 0.0)",0.319244,-0.207966,0.93737,"(0.0, 0.0, 0.0, 0.0, 0.0, 0.0, 0.0, 0.0, 0.0)",6.781,0.016,-13.708,"(0.0, 0.0, 0.0, 0.0, 0.0, 0.0, 0.0, 0.0, 0.0)",0,0,0,,-0.0158,-0.1879,0.5152,"(0.0, 0.0, 0.0, 0.0, 0.0, 0.0, 0.0, 0.0, 0.0)","b'$VNYMR,+097.250,-009.495,+011.586,-00.0158,-00.1879,+00.5152,+06.781,+00.016,-13.708,+00.319244,-00.207966,+00.937372*6F\r\n'"
1678251219.3594897,44,1678251219,314274787,IMU1_Frame,0,0,0,,0.12177219249341464,0.02066542012843966,0.7560703047520592,0.6427302449849316,"(0.0, 0.0, 0.0, 0.0, 0.0, 0.0, 0.0, 0.0, 0.0)",-0.721204,0.831208,0.54376,"(0.0, 0.0, 0.0, 0.0, 0.0, 0.0, 0.0, 0.0, 0.0)",4.728,-2.069,-12.044,"(0.0, 0.0, 0.0, 0.0, 0.0, 0.0, 0.0, 0.0, 0.0)",0,0,0,,-0.0145,-0.1745,0.5062,"(0.0, 0.0, 0.0, 0.0, 0.0, 0.0, 0.0, 0.0, 0.0)","b'$VNYMR,+098.393,-009.066,+010.962,-00.0145,-00.1745,+00.5062,+04.728,-02.069,-12.044,-00.721204,+00.831208,+00.543767*64\r\n'"
1678251219.3595188,45,1678251219,339206933,IMU1_Frame,0,0,0,,0.10560394000419693,0.0216850153864072,0.7603375817987579,0.6405187972789701,"(0.0, 0.0, 0.0, 0.0, 0.0, 0.0, 0.0, 0.0, 0.0)",-0.5991,1.097072,0.17276,"(0.0, 0.0, 0.0, 0.0, 0.0, 0.0, 0.0, 0.0, 0.0)",4.12,-3.973,-10.295,"(0.0, 0.0, 0.0, 0.0, 0.0, 0.0, 0.0, 0.0, 0.0)",0,0,0,,-0.0356,-0.174,0.4866,"(0.0, 0.0, 0.0, 0.0, 0.0, 0.0, 0.0, 0.0, 0.0)","b'$VNYMR,+099.124,-007.632,+009.774,-00.0356,-00.1740,+00.4866,+04.120,-03.973,-10.295,-00.599100,+01.097072,+00.172762*65\r\n'"
1678251219.4033659,46,1678251219,364285230,IMU1_Frame,0,0,0,,0.10050874498949791,0.027804992629771305,0.7603422960540898,0.6410963011878086,"(0.0, 0.0, 0.0, 0.0, 0.0, 0.0, 0.0, 0.0, 0.0)",0.598001,0.233141,-0.30672,"(0.0, 0.0, 0.0, 0.0, 0.0, 0.0, 0.0, 0.0, 0.0)",4.891,-5.612,-8.938,"(0.0, 0.0, 0.0, 0.0, 0.0, 0.0, 0.0, 0.0, 0.0)",0,0,0,,-0.0572,-0.1378,0.4463,"(0.0, 0.0, 0.0, 0.0, 0.0, 0.0, 0.0, 0.0, 0.0)","b'$VNYMR,+099.142,-006.730,+009.924,-00.0572,-00.1378,+00.4463,+04.891,-05.612,-08.938,+00.598001,+00.233141,-00.306729*61\r\n'"
1678251219.4045165,47,1678251219,389188766,IMU1_Frame,0,0,0,,0.1046391605393581,0.03452621726054676,0.7562794681832996,0.6449030565966342,"(0.0, 0.0, 0.0, 0.0, 0.0, 0.0, 0.0, 0.0, 0.0)",0.204391,0.186587,-0.50247,"(0.0, 0.0, 0.0, 0.0, 0.0, 0.0, 0.0, 0.0, 0.0)",6.146,-1.921,-8.985,"(0.0, 0.0, 0.0, 0.0, 0.0, 0.0, 0.0, 0.0, 0.0)",0,0,0,,-0.0758,-0.0626,0.3663,"(0.0, 0.0, 0.0, 0.0, 0.0, 0.0, 0.0, 0.0, 0.0)","b'$VNYMR,+098.468,-006.531,+010.860,-00.0758,-00.0626,+00.3663,+06.146,-01.921,-08.985,+00.204391,+00.186587,-00.502476*6B\r\n'"
1678251219.447378,48,1678251219,414138078,IMU1_Frame,0,0,0,,0.09447228883480616,0.03535527502227733,0.7542865685507637,0.6487501550476316,"(0.0, 0.0, 0.0, 0.0, 0.0, 0.0, 0.0, 0.0, 0.0)",-0.718477,0.786,-0.25681,"(0.0, 0.0, 0.0, 0.0, 0.0, 0.0, 0.0, 0.0, 0.0)",6.518,-1.167,-7.701,"(0.0, 0.0, 0.0, 0.0, 0.0, 0.0, 0.0, 0.0, 0.0)",0,0,0,,0.0328,0.0641,0.2442,"(0.0, 0.0, 0.0, 0.0, 0.0, 0.0, 0.0, 0.0, 0.0)","b'$VNYMR,+098.109,-005.546,+010.180,+00.0328,+00.0641,+00.2442,+06.518,-01.167,-07.701,-00.718477,+00.786000,-00.256814*64\r\n'"
1678251219.4913843,49,1678251219,439139366,IMU1_Frame,0,0,0,,0.09049507451882585,0.036987170233874336,0.7521427960121624,0.6517083743001384,"(0.0, 0.0, 0.0, 0.0, 0.0, 0.0, 0.0, 0.0, 0.0)",0.533004,-0.238284,-0.43589,"(0.0, 0.0, 0.0, 0.0, 0.0, 0.0, 0.0, 0.0, 0.0)",5.274,-5.188,-6.95,"(0.0, 0.0, 0.0, 0.0, 0.0, 0.0, 0.0, 0.0, 0.0)",0,0,0,,0.3502,0.0073,0.2459,"(0.0, 0.0, 0.0, 0.0, 0.0, 0.0, 0.0, 0.0, 0.0)","b'$VNYMR,+097.741,-005.044,+010.036,+00.3502,+00.0073,+00.2459,+05.274,-05.188,-06.950,+00.533004,-00.238284,-00.435897*67\r\n'"
1678251219.4914367,50,1678251219,464045047,IMU1_Frame,0,0,0,,0.10535764957640101,0.04648962190462135,0.7429313628079446,0.6593871934510344,"(0.0, 0.0, 0.0, 0.0, 0.0, 0.0, 0.0, 0.0, 0.0)",1.803234,-0.34213,-1.29959,"(0.0, 0.0, 0.0, 0.0, 0.0, 0.0, 0.0, 0.0, 0.0)",5.065,2.871,-14.724,"(0.0, 0.0, 0.0, 0.0, 0.0, 0.0, 0.0, 0.0, 0.0)",0,0,0,,0.4652,-0.2497,0.3924,"(0.0, 0.0, 0.0, 0.0, 0.0, 0.0, 0.0, 0.0, 0.0)","b'$VNYMR,+096.241,-005.465,+012.062,+00.4652,-00.2497,+00.3924,+05.065,+02.871,-14.724,+01.803234,-00.342130,-01.299598*65\r\n'"
1678251219.5354488,51,1678251219,489242076,IMU1_Frame,0,0,0,,0.0934980480297788,0.049892288194259254,0.7467115583884962,0.6566511426643415,"(0.0, 0.0, 0.0, 0.0, 0.0, 0.0, 0.0, 0.0, 0.0)",-2.098875,2.564388,1.66097,"(0.0, 0.0, 0.0, 0.0, 0.0, 0.0, 0.0, 0.0, 0.0)",6.834,-5.833,-18.341,"(0.0, 0.0, 0.0, 0.0, 0.0, 0.0, 0.0, 0.0, 0.0)",0,0,0,,0.3251,-0.419,0.4989,"(0.0, 0.0, 0.0, 0.0, 0.0, 0.0, 0.0, 0.0, 0.0)","b'$VNYMR,+096.919,-004.250,+011.411,+00.3251,-00.4190,+00.4989,+06.834,-05.833,-18.341,-02.098875,+02.564388,+01.660977*68\r\n'"
1678251219.5355036,52,1678251219,514188766,IMU1_Frame,0,0,0,,0.07118117041930731,0.05938861057425982,0.7520734577175309,0.6525272010488097,"(0.0, 0.0, 0.0, 0.0, 0.0, 0.0, 0.0, 0.0, 0.0)",0.448528,1.005097,0.39508,"(0.0, 0.0, 0.0, 0.0, 0.0, 0.0, 0.0, 0.0, 0.0)",4.464,0.867,-7.556,"(0.0, 0.0, 0.0, 0.0, 0.0, 0.0, 0.0, 0.0, 0.0)",0,0,0,,0.1645,-0.4942,0.5531,"(0.0, 0.0, 0.0, 0.0, 0.0, 0.0, 0.0, 0.0, 0.0)","b'$VNYMR,+097.952,-001.694,+010.504,+00.1645,-00.4942,+00.5531,+04.464,+00.867,-07.556,+00.448528,+01.005097,+00.395088*65\r\n'"
1678251219.5793524,53,1678251219,539171218,IMU1_Frame,0,0,0,,0.07277455002360073,0.06388598931119036,0.7563261723395066,0.6469877636191148,"(0.0, 0.0, 0.0, 0.0, 0.0, 0.0, 0.0, 0.0, 0.0)",-0.38347,0.173562,0.19046,"(0.0, 0.0, 0.0, 0.0, 0.0, 0.0, 0.0, 0.0, 0.0)",3.336,-3.728,-10.337,"(0.0, 0.0, 0.0, 0.0, 0.0, 0.0, 0.0, 0.0, 0.0)",0,0,0,,0.0612,-0.5162,0.5827,"(0.0, 0.0, 0.0, 0.0, 0.0, 0.0, 0.0, 0.0, 0.0)","b'$VNYMR,+098.759,-001.571,+011.004,+00.0612,-00.5162,+00.5827,+03.336,-03.728,-10.337,-00.383470,+00.173562,+00.190460*61\r\n'"
1678251219.5794044,54,1678251219,564015626,IMU1_Frame,0,0,0,,0.049811485342202554,0.059768632995946064,0.7576893255610736,0.647960965158091,"(0.0, 0.0, 0.0, 0.0, 0.0, 0.0, 0.0, 0.0, 0.0)",-1.30958,1.29942,-0.23376,"(0.0, 0.0, 0.0, 0.0, 0.0, 0.0, 0.0, 0.0, 0.0)",1.791,0.206,-11.1,"(0.0, 0.0, 0.0, 0.0, 0.0, 0.0, 0.0, 0.0, 0.0)",0,0,0,,-0.0113,-0.5367,0.5876,"(0.0, 0.0, 0.0, 0.0, 0.0, 0.0, 0.0, 0.0, 0.0)","b'$VNYMR,+098.936,+000.113,+008.924,-00.0113,-00.5367,+00.5876,+01.791,+00.206,-11.100,-01.309580,+01.299420,-00.233767*65\r\n'"
1678251219.6236567,55,1678251219,589073896,IMU1_Frame,0,0,0,,0.0501812734153208,0.06527566633631374,0.7573866544219409,0.6477548787051371,"(0.0, 0.0, 0.0, 0.0, 0.0, 0.0, 0.0, 0.0, 0.0)",1.159879,-0.285078,0.16961,"(0.0, 0.0, 0.0, 0.0, 0.0, 0.0, 0.0, 0.0, 0.0)",-0.226,1.752,-10.488,"(0.0, 0.0, 0.0, 0.0, 0.0, 0.0, 0.0, 0.0, 0.0)",0,0,0,,-0.0601,-0.5299,0.6105,"(0.0, 0.0, 0.0, 0.0, 0.0, 0.0, 0.0, 0.0, 0.0)","b'$VNYMR,+098.963,+000.490,+009.433,-00.0601,-00.5299,+00.6105,-00.226,+01.752,-10.488,+01.159879,-00.285078,+00.169616*60\r\n'"
1678251219.6282153,56,1678251219,614036083,IMU1_Frame,0,0,0,,0.05802173179188665,0.06948205556308705,0.7594512946948453,0.6442355575260665,"(0.0, 0.0, 0.0, 0.0, 0.0, 0.0, 0.0, 0.0, 0.0)",-0.498492,0.250326,0.29731,"(0.0, 0.0, 0.0, 0.0, 0.0, 0.0, 0.0, 0.0, 0.0)",-2.664,-1.014,-10.077,"(0.0, 0.0, 0.0, 0.0, 0.0, 0.0, 0.0, 0.0, 0.0)",0,0,0,,-0.1089,-0.5221,0.6474,"(0.0, 0.0, 0.0, 0.0, 0.0, 0.0, 0.0, 0.0, 0.0)","b'$VNYMR,+099.392,+000.080,+010.387,-00.1089,-00.5221,+00.6474,-02.664,-01.014,-10.077,-00.498492,+00.250326,+00.297311*60\r\n'"
1678251219.675423,57,1678251219,639209985,IMU1_Frame,0,0,0,,0.03288811551077547,0.06000719311488321,0.7609456350199677,0.6451970622815028,"(0.0, 0.0, 0.0, 0.0, 0.0, 0.0, 0.0, 0.0, 0.0)",-1.869717,1.122996,-0.30961,"(0.0, 0.0, 0.0, 0.0, 0.0, 0.0, 0.0, 0.0, 0.0)",-7.698,-2.538,-9.401,"(0.0, 0.0, 0.0, 0.0, 0.0, 0.0, 0.0, 0.0, 0.0)",0,0,0,,-0.1719,-0.5473,0.6475,"(0.0, 0.0, 0.0, 0.0, 0.0, 0.0, 0.0, 0.0, 0.0)","b'$VNYMR,+099.517,+001.569,+007.690,-00.1719,-00.5473,+00.6475,-07.698,-02.538,-09.401,-01.869717,+01.122996,-00.309613*6C\r\n'"
1678251219.7194662,58,1678251219,664000034,IMU1_Frame,0,0,0,,0.03329371837253206,0.05794759016751248,0.7581392623097296,0.648658973618008,"(0.0, 0.0, 0.0, 0.0, 0.0, 0.0, 0.0, 0.0, 0.0)",0.758955,-1.031201,-0.31337,"(0.0, 0.0, 0.0, 0.0, 0.0, 0.0, 0.0, 0.0, 0.0)",-10.165,-0.477,-7.202,"(0.0, 0.0, 0.0, 0.0, 0.0, 0.0, 0.0, 0.0, 0.0)",0,0,0,,-0.2545,-0.533,0.6797,"(0.0, 0.0, 0.0, 0.0, 0.0, 0.0, 0.0, 0.0, 0.0)","b'$VNYMR,+098.993,+001.415,+007.533,-00.2545,-00.5330,+00.6797,-10.165,-00.477,-07.202,+00.758955,-01.031201,-00.313377*64\r\n'"
1678251219.7195191,59,1678251219,689104557,IMU1_Frame,0,0,0,,0.05193715154207443,0.05179323676177658,0.7555381542588858,0.6509854763161081,"(0.0, 0.0, 0.0, 0.0, 0.0, 0.0, 0.0, 0.0, 0.0)",0.07783,-1.312551,-0.00487,"(0.0, 0.0, 0.0, 0.0, 0.0, 0.0, 0.0, 0.0, 0.0)",-8.974,-0.101,-10.67,"(0.0, 0.0, 0.0, 0.0, 0.0, 0.0, 0.0, 0.0, 0.0)",0,0,0,,-0.3007,-0.4874,0.7519,"(0.0, 0.0, 0.0, 0.0, 0.0, 0.0, 0.0, 0.0, 0.0)","b'$VNYMR,+098.456,-000.633,+008.389,-00.3007,-00.4874,+00.7519,-08.974,-00.101,-10.670,+00.077830,-01.312551,-00.004871*66\r\n'"
1678251219.7674015,60,1678251219,713917016,IMU1_Frame,0,0,0,,0.05199712343310721,0.03813973107358791,0.7537379693320037,0.6540036189927272,"(0.0, 0.0, 0.0, 0.0, 0.0, 0.0, 0.0, 0.0, 0.0)",-1.217337,-0.420356,-0.39725,"(0.0, 0.0, 0.0, 0.0, 0.0, 0.0, 0.0, 0.0, 0.0)",-9.56,-1.853,-8.998,"(0.0, 0.0, 0.0, 0.0, 0.0, 0.0, 0.0, 0.0, 0.0)",0,0,0,,-0.3052,-0.4317,0.816,"(0.0, 0.0, 0.0, 0.0, 0.0, 0.0, 0.0, 0.0, 0.0)","b'$VNYMR,+098.002,-001.633,+007.213,-00.3052,-00.4317,+00.8160,-09.560,-01.853,-08.998,-01.217337,-00.420356,-00.397258*62\r\n'"
1678251219.7674556,61,1678251219,738924741,IMU1_Frame,0,0,0,,0.0538434043078209,0.024929273195171284,0.749400809565444,0.6594526865311585,"(0.0, 0.0, 0.0, 0.0, 0.0, 0.0, 0.0, 0.0, 0.0)",0.037535,-1.120523,-0.43653,"(0.0, 0.0, 0.0, 0.0, 0.0, 0.0, 0.0, 0.0, 0.0)",-9.15,0.912,-8.428,"(0.0, 0.0, 0.0, 0.0, 0.0, 0.0, 0.0, 0.0, 0.0)",0,0,0,,-0.2263,-0.4003,0.848,"(0.0, 0.0, 0.0, 0.0, 0.0, 0.0, 0.0, 0.0, 0.0)","b'$VNYMR,+097.157,-002.741,+006.229,-00.2263,-00.4003,+00.8480,-09.150,+00.912,-08.428,+00.037535,-01.120523,-00.436537*6C\r\n'"
1678251219.8154387,62,1678251219,764630317,IMU1_Frame,0,0,0,,0.07126776824769493,0.021746033428731493,0.7476562733823329,0.6598925004204486,"(0.0, 0.0, 0.0, 0.0, 0.0, 0.0, 0.0, 0.0, 0.0)",0.837539,-1.185966,0.17465,"(0.0, 0.0, 0.0, 0.0, 0.0, 0.0, 0.0, 0.0, 0.0)",-7.26,0.201,-7.658,"(0.0, 0.0, 0.0, 0.0, 0.0, 0.0, 0.0, 0.0, 0.0)",0,0,0,,-0.1412,-0.3935,0.8156,"(0.0, 0.0, 0.0, 0.0, 0.0, 0.0, 0.0, 0.0, 0.0)","b'$VNYMR,+096.851,-004.466,+007.294,-00.1412,-00.3935,+00.8156,-07.260,+00.201,-07.658,+00.837539,-01.185966,+00.174657*68\r\n'"
1678251219.8154895,63,1678251219,788879156,IMU1_Frame,0,0,0,,0.08347383616499579,0.01919011969293815,0.7493920958252329,0.6565632830860518,"(0.0, 0.0, 0.0, 0.0, 0.0, 0.0, 0.0, 0.0, 0.0)",0.051185,-0.526763,0.3289,"(0.0, 0.0, 0.0, 0.0, 0.0, 0.0, 0.0, 0.0, 0.0)",-7.916,-2.747,-8.834,"(0.0, 0.0, 0.0, 0.0, 0.0, 0.0, 0.0, 0.0, 0.0)",0,0,0,,-0.1072,-0.4031,0.7568,"(0.0, 0.0, 0.0, 0.0, 0.0, 0.0, 0.0, 0.0, 0.0)","b'$VNYMR,+097.154,-005.734,+007.994,-00.1072,-00.4031,+00.7568,-07.916,-02.747,-08.834,+00.051185,-00.526763,+00.328909*64\r\n'"
1678251219.859508,64,1678251219,814600944,IMU1_Frame,0,0,0,,0.0821518257805677,0.01470621652745139,0.7507497737837708,0.6552935081930722,"(0.0, 0.0, 0.0, 0.0, 0.0, 0.0, 0.0, 0.0, 0.0)",-0.496356,0.040698,0.00222,"(0.0, 0.0, 0.0, 0.0, 0.0, 0.0, 0.0, 0.0, 0.0)",-8.583,-2.239,-11.206,"(0.0, 0.0, 0.0, 0.0, 0.0, 0.0, 0.0, 0.0, 0.0)",0,0,0,,-0.1096,-0.4275,0.7227,"(0.0, 0.0, 0.0, 0.0, 0.0, 0.0, 0.0, 0.0, 0.0)","b'$VNYMR,+097.376,-005.974,+007.496,-00.1096,-00.4275,+00.7227,-08.583,-02.239,-11.206,-00.496356,+00.040698,+00.002229*66\r\n'"
1678251219.8595564,65,1678251219,838711738,IMU1_Frame,0,0,0,,0.07758089926504816,0.012982873793042839,0.7488788000524401,0.6580221819128272,"(0.0, 0.0, 0.0, 0.0, 0.0, 0.0, 0.0, 0.0, 0.0)",-0.25203,0.255774,-0.14802,"(0.0, 0.0, 0.0, 0.0, 0.0, 0.0, 0.0, 0.0, 0.0)",-7.321,1.36,-11.581,"(0.0, 0.0, 0.0, 0.0, 0.0, 0.0, 0.0, 0.0, 0.0)",0,0,0,,-0.1151,-0.4385,0.7112,"(0.0, 0.0, 0.0, 0.0, 0.0, 0.0, 0.0, 0.0, 0.0)","b'$VNYMR,+097.041,-005.688,+007.016,-00.1151,-00.4385,+00.7112,-07.321,+01.360,-11.581,-00.252030,+00.255774,-00.148028*63\r\n'"
1678251219.907454,66,1678251219,864484310,IMU1_Frame,0,0,0,,0.07401062897152269,0.01785851314309245,0.7476421592833823,0.6597232010242169,"(0.0, 0.0, 0.0, 0.0, 0.0, 0.0, 0.0, 0.0, 0.0)",0.514876,0.648679,-0.23588,"(0.0, 0.0, 0.0, 0.0, 0.0, 0.0, 0.0, 0.0, 0.0)",-8.89,-0.23,-13.04,"(0.0, 0.0, 0.0, 0.0, 0.0, 0.0, 0.0, 0.0, 0.0)",0,0,0,,-0.1214,-0.4295,0.7364,"(0.0, 0.0, 0.0, 0.0, 0.0, 0.0, 0.0, 0.0, 0.0)","b'$VNYMR,+096.836,-004.997,+007.171,-00.1214,-00.4295,+00.7364,-08.890,-00.230,-13.040,+00.514876,+00.648679,-00.235884*66\r\n'"
1678251219.9074955,67,1678251219,888928651,IMU1_Frame,0,0,0,,0.07118417520359012,0.028960554196809485,0.7466764937620145,0.6607331633605676,"(0.0, 0.0, 0.0, 0.0, 0.0, 0.0, 0.0, 0.0, 0.0)",0.464602,0.722436,-0.12967,"(0.0, 0.0, 0.0, 0.0, 0.0, 0.0, 0.0, 0.0, 0.0)",-9.286,-0.585,-9.812,"(0.0, 0.0, 0.0, 0.0, 0.0, 0.0, 0.0, 0.0, 0.0)",0,0,0,,-0.1485,-0.3888,0.8078,"(0.0, 0.0, 0.0, 0.0, 0.0, 0.0, 0.0, 0.0, 0.0)","b'$VNYMR,+096.719,-003.901,+007.911,-00.1485,-00.3888,+00.8078,-09.286,-00.585,-09.812,+00.464602,+00.722436,-00.129674*6D\r\n'"
1678251219.9554584,68,1678251219,914484024,IMU1_Frame,0,0,0,,0.06497486284852302,0.03277301647526491,0.7451552511716975,0.6629086273689402,"(0.0, 0.0, 0.0, 0.0, 0.0, 0.0, 0.0, 0.0, 0.0)",-0.384954,0.522757,-0.372,"(0.0, 0.0, 0.0, 0.0, 0.0, 0.0, 0.0, 0.0, 0.0)",-11.418,-2.823,-10.568,"(0.0, 0.0, 0.0, 0.0, 0.0, 0.0, 0.0, 0.0, 0.0)",0,0,0,,-0.2131,-0.3717,0.8544,"(0.0, 0.0, 0.0, 0.0, 0.0, 0.0, 0.0, 0.0, 0.0)","b'$VNYMR,+096.478,-003.060,+007.769,-00.2131,-00.3717,+00.8544,-11.418,-02.823,-10.568,-00.384954,+00.522757,-00.372005*66\r\n'"
1678251219.9555035,69,1678251219,939475536,IMU1_Frame,0,0,0,,0.05439677476888118,0.035166378149939365,0.741380189856927,0.6679518926017545,"(0.0, 0.0, 0.0, 0.0, 0.0, 0.0, 0.0, 0.0, 0.0)",-0.39835,0.888508,-0.5629,"(0.0, 0.0, 0.0, 0.0, 0.0, 0.0, 0.0, 0.0, 0.0)",-12.361,-1.337,-11.958,"(0.0, 0.0, 0.0, 0.0, 0.0, 0.0, 0.0, 0.0, 0.0)",0,0,0,,-0.2847,-0.4078,0.8366,"(0.0, 0.0, 0.0, 0.0, 0.0, 0.0, 0.0, 0.0, 0.0)","b'$VNYMR,+095.844,-001.930,+007.174,-00.2847,-00.4078,+00.8366,-12.361,-01.337,-11.958,-00.398350,+00.888508,-00.562904*65\r\n'"
1678251220.0034373,70,1678251219,964573144,IMU1_Frame,0,0,0,,0.04279805524727984,0.04162138294733007,0.7374515717182024,0.6727563944838839,"(0.0, 0.0, 0.0, 0.0, 0.0, 0.0, 0.0, 0.0, 0.0)",-0.104715,1.019382,-0.54466,"(0.0, 0.0, 0.0, 0.0, 0.0, 0.0, 0.0, 0.0, 0.0)",-11.843,-1.432,-10.232,"(0.0, 0.0, 0.0, 0.0, 0.0, 0.0, 0.0, 0.0, 0.0)",0,0,0,,-0.29,-0.4888,0.7432,"(0.0, 0.0, 0.0, 0.0, 0.0, 0.0, 0.0, 0.0, 0.0)","b'$VNYMR,+095.229,-000.408,+006.833,-00.2900,-00.4888,+00.7432,-11.843,-01.432,-10.232,-00.104715,+01.019382,-00.544666*60\r\n'"
1678251220.0047054,71,1678251219,989565849,IMU1_Frame,0,0,0,,0.034352646719011184,0.05280114460231033,0.7334480923753804,0.6768203828069898,"(0.0, 0.0, 0.0, 0.0, 0.0, 0.0, 0.0, 0.0, 0.0)",0.223766,1.065372,-0.59095,"(0.0, 0.0, 0.0, 0.0, 0.0, 0.0, 0.0, 0.0, 0.0)",-10.223,-0.634,-6.555,"(0.0, 0.0, 0.0, 0.0, 0.0, 0.0, 0.0, 0.0, 0.0)",0,0,0,,-0.2066,-0.5275,0.6643,"(0.0, 0.0, 0.0, 0.0, 0.0, 0.0, 0.0, 0.0, 0.0)","b'$VNYMR,+094.674,+001.208,+007.122,-00.2066,-00.5275,+00.6643,-10.223,-00.634,-06.555,+00.223766,+01.065372,-00.590955*6E\r\n'"
1678251220.0474668,72,1678251220,14441251,IMU1_Frame,0,0,0,,0.02759852965159826,0.058649384907660404,0.7289853869550661,0.6814535027549533,"(0.0, 0.0, 0.0, 0.0, 0.0, 0.0, 0.0, 0.0, 0.0)",0.179224,0.253237,-0.30736,"(0.0, 0.0, 0.0, 0.0, 0.0, 0.0, 0.0, 0.0, 0.0)",-7.522,1.47,-7.489,"(0.0, 0.0, 0.0, 0.0, 0.0, 0.0, 0.0, 0.0, 0.0)",0,0,0,,-0.1228,-0.5351,0.6256,"(0.0, 0.0, 0.0, 0.0, 0.0, 0.0, 0.0, 0.0, 0.0)","b'$VNYMR,+094.001,+002.275,+007.078,-00.1228,-00.5351,+00.6256,-07.522,+01.470,-07.489,+00.179224,+00.253237,-00.307368*60\r\n'"
1678251220.0915155,73,1678251220,39484977,IMU1_Frame,0,0,0,,0.03552695406375384,0.06818013836402179,0.7261021084772995,0.6832752244391967,"(0.0, 0.0, 0.0, 0.0, 0.0, 0.0, 0.0, 0.0, 0.0)",1.311957,0.127964,-0.54825,"(0.0, 0.0, 0.0, 0.0, 0.0, 0.0, 0.0, 0.0, 0.0)",-7.466,-4.076,-10.462,"(0.0, 0.0, 0.0, 0.0, 0.0, 0.0, 0.0, 0.0, 0.0)",0,0,0,,-0.061,-0.5166,0.6167,"(0.0, 0.0, 0.0, 0.0, 0.0, 0.0, 0.0, 0.0, 0.0)","b'$VNYMR,+093.658,+002.383,+008.493,-00.0610,-00.5166,+00.6167,-07.466,-04.076,-10.462,+01.311957,+00.127964,-00.548252*6B\r\n'"
1678251220.0915568,74,1678251220,64487695,IMU1_Frame,0,0,0,,0.040868940208775906,0.08647272146482027,0.7154157033709453,0.6921217880828017,"(0.0, 0.0, 0.0, 0.0, 0.0, 0.0, 0.0, 0.0, 0.0)",1.442977,0.923657,-1.35883,"(0.0, 0.0, 0.0, 0.0, 0.0, 0.0, 0.0, 0.0, 0.0)",-3.96,-3.024,-10.378,"(0.0, 0.0, 0.0, 0.0, 0.0, 0.0, 0.0, 0.0, 0.0)",0,0,0,,-0.0022,-0.4946,0.6102,"(0.0, 0.0, 0.0, 0.0, 0.0, 0.0, 0.0, 0.0, 0.0)","b'$VNYMR,+092.216,+003.510,+010.407,-00.0022,-00.4946,+00.6102,-03.960,-03.024,-10.378,+01.442977,+00.923657,-01.358838*61\r\n'"
1678251220.1354752,75,1678251220,89543819,IMU1_Frame,0,0,0,,0.041105201817694594,0.10955685273517993,0.701322918344877,0.7031741054721183,"(0.0, 0.0, 0.0, 0.0, 0.0, 0.0, 0.0, 0.0, 0.0)",1.111347,1.165845,-1.54092,"(0.0, 0.0, 0.0, 0.0, 0.0, 0.0, 0.0, 0.0, 0.0)",2.748,-2.576,-7.105,"(0.0, 0.0, 0.0, 0.0, 0.0, 0.0, 0.0, 0.0, 0.0)",0,0,0,,0.0653,-0.4573,0.6038,"(0.0, 0.0, 0.0, 0.0, 0.0, 0.0, 0.0, 0.0, 0.0)","b'$VNYMR,+090.444,+005.533,+012.267,+00.0653,-00.4573,+00.6038,+02.748,-02.576,-07.105,+01.111347,+01.165845,-01.540923*65\r\n'"
1678251220.1355247,76,1678251220,114300012,IMU1_Frame,0,0,0,,0.03234996139273376,0.12690071317179175,0.6862633638191226,0.7154664803287728,"(0.0, 0.0, 0.0, 0.0, 0.0, 0.0, 0.0, 0.0, 0.0)",0.325914,1.185919,-1.67024,"(0.0, 0.0, 0.0, 0.0, 0.0, 0.0, 0.0, 0.0, 0.0)",8.585,4.059,-4.948,"(0.0, 0.0, 0.0, 0.0, 0.0, 0.0, 0.0, 0.0, 0.0)",0,0,0,,0.1776,-0.4066,0.5817,"(0.0, 0.0, 0.0, 0.0, 0.0, 0.0, 0.0, 0.0, 0.0)","b'$VNYMR,+088.503,+007.885,+012.860,+00.1776,-00.4066,+00.5817,+08.585,+04.059,-04.948,+00.325914,+01.185919,-01.670245*67\r\n'"
1678251220.179462,77,1678251220,139343261,IMU1_Frame,0,0,0,,0.03378465416263557,0.1302471164276213,0.6775896411425018,0.7230259774183612,"(0.0, 0.0, 0.0, 0.0, 0.0, 0.0, 0.0, 0.0, 0.0)",0.590815,-0.55754,-0.43568,"(0.0, 0.0, 0.0, 0.0, 0.0, 0.0, 0.0, 0.0, 0.0)",10.983,3.092,-3.735,"(0.0, 0.0, 0.0, 0.0, 0.0, 0.0, 0.0, 0.0, 0.0)",0,0,0,,0.3334,-0.2378,0.5353,"(0.0, 0.0, 0.0, 0.0, 0.0, 0.0, 0.0, 0.0, 0.0)","b'$VNYMR,+087.231,+008.196,+013.161,+00.3334,-00.2378,+00.5353,+10.983,+03.092,-03.735,+00.590815,-00.557540,-00.435689*60\r\n'"
1678251220.1795125,78,1678251220,164341449,IMU1_Frame,0,0,0,,0.05898390523633928,0.1300958584806663,0.673080281051109,0.7256437843662752,"(0.0, 0.0, 0.0, 0.0, 0.0, 0.0, 0.0, 0.0, 0.0)",1.828031,-1.927131,0.03164,"(0.0, 0.0, 0.0, 0.0, 0.0, 0.0, 0.0, 0.0, 0.0)",12.609,0.122,-4.02,"(0.0, 0.0, 0.0, 0.0, 0.0, 0.0, 0.0, 0.0, 0.0)",0,0,0,,0.257,0.055,0.4338,"(0.0, 0.0, 0.0, 0.0, 0.0, 0.0, 0.0, 0.0, 0.0)","b'$VNYMR,+086.535,+006.281,+015.207,+00.2570,+00.0550,+00.4338,+12.609,+00.122,-04.020,+01.828031,-01.927131,+00.031649*6E\r\n'"
1678251220.2238138,79,1678251220,189250230,IMU1_Frame,0,0,0,,0.09200990673912206,0.12628639247087572,0.6704256991182599,0.7253380633196789,"(0.0, 0.0, 0.0, 0.0, 0.0, 0.0, 0.0, 0.0, 0.0)",1.511276,-1.878325,0.3958,"(0.0, 0.0, 0.0, 0.0, 0.0, 0.0, 0.0, 0.0, 0.0)",15.408,3.475,-11.456,"(0.0, 0.0, 0.0, 0.0, 0.0, 0.0, 0.0, 0.0, 0.0)",0,0,0,,-0.0769,-0.0046,0.3491,"(0.0, 0.0, 0.0, 0.0, 0.0, 0.0, 0.0, 0.0, 0.0)","b'$VNYMR,+086.027,+003.430,+017.659,-00.0769,-00.0046,+00.3491,+15.408,+03.475,-11.456,+01.511276,-01.878325,+00.395808*68\r\n'"
1678251220.228307,80,1678251220,214321136,IMU1_Frame,0,0,0,,0.11088299039096346,0.11765171919605842,0.6753075265210244,0.7195990411584948,"(0.0, 0.0, 0.0, 0.0, 0.0, 0.0, 0.0, 0.0, 0.0)",0.060983,-1.383514,1.17106,"(0.0, 0.0, 0.0, 0.0, 0.0, 0.0, 0.0, 0.0, 0.0)",15.258,2.458,-13.089,"(0.0, 0.0, 0.0, 0.0, 0.0, 0.0, 0.0, 0.0, 0.0)",0,0,0,,-0.1211,-0.0938,0.4443,"(0.0, 0.0, 0.0, 0.0, 0.0, 0.0, 0.0, 0.0, 0.0)","b'$VNYMR,+086.546,+001.121,+018.575,-00.1211,-00.0938,+00.4443,+15.258,+02.458,-13.089,+00.060983,-01.383514,+01.171066*64\r\n'"
1678251220.2753997,81,1678251220,239354610,IMU1_Frame,0,0,0,,0.1294982625471679,0.1054443311328884,0.6858072458284656,0.7083643939374544,"(0.0, 0.0, 0.0, 0.0, 0.0, 0.0, 0.0, 0.0, 0.0)",0.772878,-1.726785,1.5136,"(0.0, 0.0, 0.0, 0.0, 0.0, 0.0, 0.0, 0.0, 0.0)",13.419,-4.071,-14.997,"(0.0, 0.0, 0.0, 0.0, 0.0, 0.0, 0.0, 0.0, 0.0)",0,0,0,,-0.0962,-0.1157,0.4922,"(0.0, 0.0, 0.0, 0.0, 0.0, 0.0, 0.0, 0.0, 0.0)","b'$VNYMR,+087.873,-001.618,+019.161,-00.0962,-00.1157,+00.4922,+13.419,-04.071,-14.997,+00.772878,-01.726785,+01.513609*65\r\n'"
1678251220.3193579,82,1678251220,264234066,IMU1_Frame,0,0,0,,0.15711811411243498,0.09807202550330466,0.692246825626254,0.6974884288945631,"(0.0, 0.0, 0.0, 0.0, 0.0, 0.0, 0.0, 0.0, 0.0)",1.293916,-1.705475,1.02028,"(0.0, 0.0, 0.0, 0.0, 0.0, 0.0, 0.0, 0.0, 0.0)",12.631,-4.376,-15.86,"(0.0, 0.0, 0.0, 0.0, 0.0, 0.0, 0.0, 0.0, 0.0)",0,0,0,,-0.0854,-0.1037,0.4974,"(0.0, 0.0, 0.0, 0.0, 0.0, 0.0, 0.0, 0.0, 0.0)","b'$VNYMR,+088.715,-004.630,+020.862,-00.0854,-00.1037,+00.4974,+12.631,-04.376,-15.860,+01.293916,-01.705475,+01.020280*60\r\n'"
1678251220.3194034,83,1678251220,289430379,IMU1_Frame,0,0,0,,0.16376293040329143,0.09216280583902192,0.6965524776244629,0.6924610933192042,"(0.0, 0.0, 0.0, 0.0, 0.0, 0.0, 0.0, 0.0, 0.0)",-0.737635,0.362365,0.59783,"(0.0, 0.0, 0.0, 0.0, 0.0, 0.0, 0.0, 0.0, 0.0)",11.892,1.513,-14.208,"(0.0, 0.0, 0.0, 0.0, 0.0, 0.0, 0.0, 0.0, 0.0)",0,0,0,,-0.0745,-0.0873,0.5013,"(0.0, 0.0, 0.0, 0.0, 0.0, 0.0, 0.0, 0.0, 0.0)","b'$VNYMR,+089.272,-005.768,+020.916,-00.0745,-00.0873,+00.5013,+11.892,+01.513,-14.208,-00.737635,+00.362365,+00.597831*6C\r\n'"
1678251220.363485,84,1678251220,314117431,IMU1_Frame,0,0,0,,0.1481669921723054,0.085161470558128,0.7093343832237082,0.6838412090095407,"(0.0, 0.0, 0.0, 0.0, 0.0, 0.0, 0.0, 0.0, 0.0)",-1.283107,0.783774,1.61427,"(0.0, 0.0, 0.0, 0.0, 0.0, 0.0, 0.0, 0.0, 0.0)",8.963,-0.294,-9.058,"(0.0, 0.0, 0.0, 0.0, 0.0, 0.0, 0.0, 0.0, 0.0)",0,0,0,,-0.0803,-0.0604,0.4627,"(0.0, 0.0, 0.0, 0.0, 0.0, 0.0, 0.0, 0.0, 0.0)","b'$VNYMR,+091.198,-005.378,+018.959,-00.0803,-00.0604,+00.4627,+08.963,-00.294,-09.058,-01.283107,+00.783774,+01.614270*63\r\n'"
1678251220.3635318,85,1678251220,339132070,IMU1_Frame,0,0,0,,0.13433077788367578,0.08052716555782266,0.7234977546706973,0.6723255288227936,"(0.0, 0.0, 0.0, 0.0, 0.0, 0.0, 0.0, 0.0, 0.0)",-0.662453,0.74229,1.10261,"(0.0, 0.0, 0.0, 0.0, 0.0, 0.0, 0.0, 0.0, 0.0)",8.642,-5.532,-7.352,"(0.0, 0.0, 0.0, 0.0, 0.0, 0.0, 0.0, 0.0, 0.0)",0,0,0,,-0.0291,0.0042,0.3895,"(0.0, 0.0, 0.0, 0.0, 0.0, 0.0, 0.0, 0.0, 0.0)","b'$VNYMR,+093.445,-004.939,+017.353,-00.0291,+00.0042,+00.3895,+08.642,-05.532,-07.352,-00.662453,+00.742290,+01.102617*6A\r\n'"
1678251220.4074469,86,1678251220,364291191,IMU1_Frame,0,0,0,,0.1250700134052049,0.07987140791667798,0.729816888229442,0.6673420109653847,"(0.0, 0.0, 0.0, 0.0, 0.0, 0.0, 0.0, 0.0, 0.0)",-0.608767,0.382004,0.20211,"(0.0, 0.0, 0.0, 0.0, 0.0, 0.0, 0.0, 0.0, 0.0)",8.286,-4.743,-6.374,"(0.0, 0.0, 0.0, 0.0, 0.0, 0.0, 0.0, 0.0, 0.0)",0,0,0,,0.1742,0.036,0.3393,"(0.0, 0.0, 0.0, 0.0, 0.0, 0.0, 0.0, 0.0, 0.0)","b'$VNYMR,+094.488,-004.356,+016.519,+00.1742,+00.0360,+00.3393,+08.286,-04.743,-06.374,-00.608767,+00.382004,+00.202117*62\r\n'"
1678251220.4074893,87,1678251220,389281272,IMU1_Frame,0,0,0,,0.11414866868339232,0.07231426573627354,0.7310669397925528,0.6687913411155865,"(0.0, 0.0, 0.0, 0.0, 0.0, 0.0, 0.0, 0.0, 0.0)",-1.243236,0.321573,-0.05907,"(0.0, 0.0, 0.0, 0.0, 0.0, 0.0, 0.0, 0.0, 0.0)",7.788,-2.704,-8.273,"(0.0, 0.0, 0.0, 0.0, 0.0, 0.0, 0.0, 0.0, 0.0)",0,0,0,,0.3663,-0.1348,0.4168,"(0.0, 0.0, 0.0, 0.0, 0.0, 0.0, 0.0, 0.0, 0.0)","b'$VNYMR,+094.564,-004.024,+015.014,+00.3663,-00.1348,+00.4168,+07.788,-02.704,-08.273,-01.243236,+00.321573,-00.059078*6C\r\n'"
1678251220.4513505,88,1678251220,414109706,IMU1_Frame,0,0,0,,0.10438904596372618,0.07248610387203504,0.7334157193503664,0.6677949344207548,"(0.0, 0.0, 0.0, 0.0, 0.0, 0.0, 0.0, 0.0, 0.0)",0.133555,0.658165,0.2092,"(0.0, 0.0, 0.0, 0.0, 0.0, 0.0, 0.0, 0.0, 0.0)",7.01,-4.902,-10.856,"(0.0, 0.0, 0.0, 0.0, 0.0, 0.0, 0.0, 0.0, 0.0)",0,0,0,,0.3169,-0.3409,0.5157,"(0.0, 0.0, 0.0, 0.0, 0.0, 0.0, 0.0, 0.0, 0.0)","b'$VNYMR,+094.959,-003.228,+014.249,+00.3169,-00.3409,+00.5157,+07.010,-04.902,-10.856,+00.133555,+00.658165,+00.209209*6C\r\n'"
1678251220.45444,89,1678251220,439122438,IMU1_Frame,0,0,0,,0.10064532202935503,0.07651926614138871,0.7330461437139051,0.6683252742856307,"(0.0, 0.0, 0.0, 0.0, 0.0, 0.0, 0.0, 0.0, 0.0)",-0.784412,0.448118,-0.35301,"(0.0, 0.0, 0.0, 0.0, 0.0, 0.0, 0.0, 0.0, 0.0)",5.416,-4.047,-11.524,"(0.0, 0.0, 0.0, 0.0, 0.0, 0.0, 0.0, 0.0, 0.0)",0,0,0,,0.2024,-0.444,0.584,"(0.0, 0.0, 0.0, 0.0, 0.0, 0.0, 0.0, 0.0, 0.0)","b'$VNYMR,+094.963,-002.595,+014.298,+00.2024,-00.4440,+00.5840,+05.416,-04.047,-11.524,-00.784412,+00.448118,-00.353010*61\r\n'"
1678251220.495425,90,1678251220,464097738,IMU1_Frame,0,0,0,,0.06533600903345865,0.06869819111958385,0.7321718927284151,0.6744894987759018,"(0.0, 0.0, 0.0, 0.0, 0.0, 0.0, 0.0, 0.0, 0.0)",-2.277244,2.163659,-0.5932,"(0.0, 0.0, 0.0, 0.0, 0.0, 0.0, 0.0, 0.0, 0.0)",4.84,4.238,-9.972,"(0.0, 0.0, 0.0, 0.0, 0.0, 0.0, 0.0, 0.0, 0.0)",0,0,0,,0.091,-0.508,0.5973,"(0.0, 0.0, 0.0, 0.0, 0.0, 0.0, 0.0, 0.0, 0.0)","b'$VNYMR,+094.680,-000.172,+010.879,+00.0910,-00.5080,+00.5973,+04.840,+04.238,-09.972,-02.277244,+02.163659,-00.593200*66\r\n'"
1678251220.5433602,91,1678251220,489222764,IMU1_Frame,0,0,0,,0.04747291248823447,0.0641333699844547,0.734868985388975,0.6734989292847465,"(0.0, 0.0, 0.0, 0.0, 0.0, 0.0, 0.0, 0.0, 0.0)",-0.410815,0.755398,1.27924,"(0.0, 0.0, 0.0, 0.0, 0.0, 0.0, 0.0, 0.0, 0.0)",1.861,-0.369,-12.607,"(0.0, 0.0, 0.0, 0.0, 0.0, 0.0, 0.0, 0.0, 0.0)",0,0,0,,0.014,-0.544,0.5946,"(0.0, 0.0, 0.0, 0.0, 0.0, 0.0, 0.0, 0.0, 0.0)","b'$VNYMR,+095.066,+000.952,+009.104,+00.0140,-00.5440,+00.5946,+01.861,-00.369,-12.607,-00.410815,+00.755398,+01.279243*6A\r\n'"
1678251220.543414,92,1678251220,514000892,IMU1_Frame,0,0,0,,0.04400942032594359,0.06787713213781506,0.7436395688115829,0.6636686353543034,"(0.0, 0.0, 0.0, 0.0, 0.0, 0.0, 0.0, 0.0, 0.0)",-0.79338,0.577265,1.10075,"(0.0, 0.0, 0.0, 0.0, 0.0, 0.0, 0.0, 0.0, 0.0)",-1.363,-0.294,-15.094,"(0.0, 0.0, 0.0, 0.0, 0.0, 0.0, 0.0, 0.0, 0.0)",0,0,0,,-0.054,-0.5435,0.6261,"(0.0, 0.0, 0.0, 0.0, 0.0, 0.0, 0.0, 0.0, 0.0)","b'$VNYMR,+096.618,+001.412,+009.173,-00.0540,-00.5435,+00.6261,-01.363,-00.294,-15.094,-00.793380,+00.577265,+01.100752*62\r\n'"
1678251220.591395,93,1678251220,539017200,IMU1_Frame,0,0,0,,0.014557042029710171,0.053381602285453675,0.7553922477497806,0.652932652809091,"(0.0, 0.0, 0.0, 0.0, 0.0, 0.0, 0.0, 0.0, 0.0)",-2.887074,1.280037,1.20648,"(0.0, 0.0, 0.0, 0.0, 0.0, 0.0, 0.0, 0.0, 0.0)",-4.895,0.44,-9.881,"(0.0, 0.0, 0.0, 0.0, 0.0, 0.0, 0.0, 0.0, 0.0)",0,0,0,,-0.1449,-0.5847,0.6167,"(0.0, 0.0, 0.0, 0.0, 0.0, 0.0, 0.0, 0.0, 0.0)","b'$VNYMR,+098.459,+002.735,+005.726,-00.1449,-00.5847,+00.6167,-04.895,+00.440,-09.881,-02.887074,+01.280037,+01.206485*69\r\n'"
1678251220.591442,94,1678251220,563998699,IMU1_Frame,0,0,0,,-0.008775526044274597,0.04188756731679408,0.7636582888960167,0.6442006206511562,"(0.0, 0.0, 0.0, 0.0, 0.0, 0.0, 0.0, 0.0, 0.0)",-0.938806,0.260259,0.45715,"(0.0, 0.0, 0.0, 0.0, 0.0, 0.0, 0.0, 0.0, 0.0)",-10.207,-4.85,-2.921,"(0.0, 0.0, 0.0, 0.0, 0.0, 0.0, 0.0, 0.0, 0.0)",0,0,0,,-0.2534,-0.6043,0.622,"(0.0, 0.0, 0.0, 0.0, 0.0, 0.0, 0.0, 0.0, 0.0)","b'$VNYMR,+099.802,+003.863,+003.026,-00.2534,-00.6043,+00.6220,-10.207,-04.850,-02.921,-00.938806,+00.260259,+00.457159*62\r\n'"
1678251220.6353803,95,1678251220,589256048,IMU1_Frame,0,0,0,,0.009554512730853927,0.0389922949115421,0.7561576692832933,0.653156865850819,"(0.0, 0.0, 0.0, 0.0, 0.0, 0.0, 0.0, 0.0, 0.0)",1.94272,-2.14393,-1.75977,"(0.0, 0.0, 0.0, 0.0, 0.0, 0.0, 0.0, 0.0, 0.0)",-13.833,1.727,-7.655,"(0.0, 0.0, 0.0, 0.0, 0.0, 0.0, 0.0, 0.0, 0.0)",0,0,0,,-0.3042,-0.583,0.6829,"(0.0, 0.0, 0.0, 0.0, 0.0, 0.0, 0.0, 0.0, 0.0)","b'$VNYMR,+098.435,+002.091,+004.100,-00.3042,-00.5830,+00.6829,-13.833,+01.727,-07.655,+01.942720,-02.143930,-01.759772*69\r\n'"
1678251220.6354206,96,1678251220,613950729,IMU1_Frame,0,0,0,,0.03481596130810519,0.03010897577525388,0.7525674165930084,0.6569045454999403,"(0.0, 0.0, 0.0, 0.0, 0.0, 0.0, 0.0, 0.0, 0.0)",-0.415487,-1.359199,0.68016,"(0.0, 0.0, 0.0, 0.0, 0.0, 0.0, 0.0, 0.0, 0.0)",-12.215,2.864,-14.256,"(0.0, 0.0, 0.0, 0.0, 0.0, 0.0, 0.0, 0.0, 0.0)",0,0,0,,-0.2983,-0.5343,0.769,"(0.0, 0.0, 0.0, 0.0, 0.0, 0.0, 0.0, 0.0, 0.0)","b'$VNYMR,+097.732,-000.736,+005.225,-00.2983,-00.5343,+00.7690,-12.215,+02.864,-14.256,-00.415487,-01.359199,+00.680160*6F\r\n'"
1678251220.6795192,97,1678251220,638843297,IMU1_Frame,0,0,0,,0.03240211541194598,0.014540415654396295,0.7543600681672237,0.6554994788588087,"(0.0, 0.0, 0.0, 0.0, 0.0, 0.0, 0.0, 0.0, 0.0)",-1.239037,-0.552409,-0.36353,"(0.0, 0.0, 0.0, 0.0, 0.0, 0.0, 0.0, 0.0, 0.0)",-15.288,-2.665,-9.031,"(0.0, 0.0, 0.0, 0.0, 0.0, 0.0, 0.0, 0.0, 0.0)",0,0,0,,-0.2684,-0.5194,0.7695,"(0.0, 0.0, 0.0, 0.0, 0.0, 0.0, 0.0, 0.0, 0.0)","b'$VNYMR,+097.967,-001.709,+003.695,-00.2684,-00.5194,+00.7695,-15.288,-02.665,-09.031,-01.239037,-00.552409,-00.363538*64\r\n'"
1678251220.6795814,98,1678251220,664045333,IMU1_Frame,0,0,0,,0.03450563245571675,0.0016393298085381099,0.7479330391583429,0.6628746811139905,"(0.0, 0.0, 0.0, 0.0, 0.0, 0.0, 0.0, 0.0, 0.0)",-0.104739,-1.0876,-0.96641,"(0.0, 0.0, 0.0, 0.0, 0.0, 0.0, 0.0, 0.0, 0.0)",-11.998,-0.393,-11.588,"(0.0, 0.0, 0.0, 0.0, 0.0, 0.0, 0.0, 0.0, 0.0)",0,0,0,,-0.2206,-0.5261,0.7376,"(0.0, 0.0, 0.0, 0.0, 0.0, 0.0, 0.0, 0.0, 0.0)","b'$VNYMR,+096.832,-002.834,+002.766,-00.2206,-00.5261,+00.7376,-11.998,-00.393,-11.588,-00.104739,-01.087600,-00.966414*69\r\n'"
1678251220.723499,99,1678251220,689083576,IMU1_Frame,0,0,0,,0.050438091056542206,0.00048241438284231386,0.7403690078970272,0.6703055261539375,"(0.0, 0.0, 0.0, 0.0, 0.0, 0.0, 0.0, 0.0, 0.0)",1.148597,-0.929765,-0.66299,"(0.0, 0.0, 0.0, 0.0, 0.0, 0.0, 0.0, 0.0, 0.0)",-7.911,1.881,-11.983,"(0.0, 0.0, 0.0, 0.0, 0.0, 0.0, 0.0, 0.0, 0.0)",0,0,0,,-0.1834,-0.5204,0.7308,"(0.0, 0.0, 0.0, 0.0, 0.0, 0.0, 0.0, 0.0, 0.0)","b'$VNYMR,+095.541,-004.246,+003.929,-00.1834,-00.5204,+00.7308,-07.911,+01.881,-11.983,+01.148597,-00.929765,-00.662998*67\r\n'"
1678251220.7277274,100,1678251220,713849544,IMU1_Frame,0,0,0,,0.06450682347360318,0.0032938857656739096,0.7412026942685799,0.6681665855540114,"(0.0, 0.0, 0.0, 0.0, 0.0, 0.0, 0.0, 0.0, 0.0)",0.442383,-0.547002,0.49411,"(0.0, 0.0, 0.0, 0.0, 0.0, 0.0, 0.0, 0.0, 0.0)",-7.945,0.229,-8.32,"(0.0, 0.0, 0.0, 0.0, 0.0, 0.0, 0.0, 0.0, 0.0)",0,0,0,,-0.1661,-0.4986,0.7437,"(0.0, 0.0, 0.0, 0.0, 0.0, 0.0, 0.0, 0.0, 0.0)","b'$VNYMR,+095.693,-005.234,+005.248,-00.1661,-00.4986,+00.7437,-07.945,+00.229,-08.320,+00.442383,-00.547002,+00.494113*6A\r\n'"
1678251220.7753637,101,1678251220,738907575,IMU1_Frame,0,0,0,,0.07025167253970685,-9.214343204298064e-05,0.7461771943688703,0.6620304287710366,"(0.0, 0.0, 0.0, 0.0, 0.0, 0.0, 0.0, 0.0, 0.0)",-0.071454,-0.512627,0.67139,"(0.0, 0.0, 0.0, 0.0, 0.0, 0.0, 0.0, 0.0, 0.0)",-9.645,-0.957,-8.794,"(0.0, 0.0, 0.0, 0.0, 0.0, 0.0, 0.0, 0.0, 0.0)",0,0,0,,-0.1648,-0.483,0.7601,"(0.0, 0.0, 0.0, 0.0, 0.0, 0.0, 0.0, 0.0, 0.0)","b'$VNYMR,+096.557,-006.025,+005.359,-00.1648,-00.4830,+00.7601,-09.645,-00.957,-08.794,-00.071454,-00.512627,+00.671394*66\r\n'"
1678251220.8233602,102,1678251220,764610052,IMU1_Frame,0,0,0,,0.07363031590043473,-0.003560010667796598,0.7492687657205838,0.658150605575958,"(0.0, 0.0, 0.0, 0.0, 0.0, 0.0, 0.0, 0.0, 0.0)",0.198997,-0.098971,0.23806,"(0.0, 0.0, 0.0, 0.0, 0.0, 0.0, 0.0, 0.0, 0.0)",-11.154,-1.45,-11.659,"(0.0, 0.0, 0.0, 0.0, 0.0, 0.0, 0.0, 0.0, 0.0)",0,0,0,,-0.1766,-0.485,0.7929,"(0.0, 0.0, 0.0, 0.0, 0.0, 0.0, 0.0, 0.0, 0.0)","b'$VNYMR,+097.103,-006.605,+005.290,-00.1766,-00.4850,+00.7929,-11.154,-01.450,-11.659,+00.198997,-00.098971,+00.238067*6E\r\n'"
1678251220.8233964,103,1678251220,788753747,IMU1_Frame,0,0,0,,0.07440307904131617,0.004694596089065944,0.7492207387505774,0.6581112574806567,"(0.0, 0.0, 0.0, 0.0, 0.0, 0.0, 0.0, 0.0, 0.0)",0.808705,0.554137,-0.18204,"(0.0, 0.0, 0.0, 0.0, 0.0, 0.0, 0.0, 0.0, 0.0)",-11.932,0.316,-11.264,"(0.0, 0.0, 0.0, 0.0, 0.0, 0.0, 0.0, 0.0, 0.0)",0,0,0,,-0.2126,-0.4774,0.8098,"(0.0, 0.0, 0.0, 0.0, 0.0, 0.0, 0.0, 0.0, 0.0)","b'$VNYMR,+097.088,-006.045,+006.059,-00.2126,-00.4774,+00.8098,-11.932,+00.316,-11.264,+00.808705,+00.554137,-00.182043*60\r\n'"
1678251220.867423,104,1678251220,814560413,IMU1_Frame,0,0,0,,0.07632735207321381,0.020042669400544243,0.7483226809801947,0.6586240140318342,"(0.0, 0.0, 0.0, 0.0, 0.0, 0.0, 0.0, 0.0, 0.0)",1.051328,0.748985,-0.15839,"(0.0, 0.0, 0.0, 0.0, 0.0, 0.0, 0.0, 0.0, 0.0)",-12.249,0.271,-9.567,"(0.0, 0.0, 0.0, 0.0, 0.0, 0.0, 0.0, 0.0, 0.0)",0,0,0,,-0.2392,-0.4879,0.7876,"(0.0, 0.0, 0.0, 0.0, 0.0, 0.0, 0.0, 0.0, 0.0)","b'$VNYMR,+096.964,-005.039,+007.530,-00.2392,-00.4879,+00.7876,-12.249,+00.271,-09.567,+01.051328,+00.748985,-00.158393*61\r\n'"
1678251220.8674896,105,1678251220,838777065,IMU1_Frame,0,0,0,,0.07446834585302513,0.03732023956599763,0.7465527273906165,0.6600914257966715,"(0.0, 0.0, 0.0, 0.0, 0.0, 0.0, 0.0, 0.0, 0.0)",0.856115,1.201863,-0.34948,"(0.0, 0.0, 0.0, 0.0, 0.0, 0.0, 0.0, 0.0, 0.0)",-11.353,-0.979,-8.666,"(0.0, 0.0, 0.0, 0.0, 0.0, 0.0, 0.0, 0.0, 0.0)",0,0,0,,-0.2065,-0.5087,0.7302,"(0.0, 0.0, 0.0, 0.0, 0.0, 0.0, 0.0, 0.0, 0.0)","b'$VNYMR,+096.759,-003.550,+008.878,-00.2065,-00.5087,+00.7302,-11.353,-00.979,-08.666,+00.856115,+01.201863,-00.349482*60\r\n'"
1678251220.9113622,106,1678251220,864566326,IMU1_Frame,0,0,0,,0.06488862951477815,0.05867807063334163,0.7442637561557514,0.6621312642213587,"(0.0, 0.0, 0.0, 0.0, 0.0, 0.0, 0.0, 0.0, 0.0)",0.58287,1.897179,-0.55153,"(0.0, 0.0, 0.0, 0.0, 0.0, 0.0, 0.0, 0.0, 0.0)",-10.048,-1.904,-10.001,"(0.0, 0.0, 0.0, 0.0, 0.0, 0.0, 0.0, 0.0, 0.0)",0,0,0,,-0.1502,-0.5122,0.6845,"(0.0, 0.0, 0.0, 0.0, 0.0, 0.0, 0.0, 0.0, 0.0)","b'$VNYMR,+096.590,-001.082,+009.980,-00.1502,-00.5122,+00.6845,-10.048,-01.904,-10.001,+00.582870,+01.897179,-00.551539*62\r\n'"
1678251220.9114134,107,1678251220,889585256,IMU1_Frame,0,0,0,,0.05092722097055205,0.08095308883447441,0.7407964904147192,0.6648861371404952,"(0.0, 0.0, 0.0, 0.0, 0.0, 0.0, 0.0, 0.0, 0.0)",0.691875,1.974264,-0.50587,"(0.0, 0.0, 0.0, 0.0, 0.0, 0.0, 0.0, 0.0, 0.0)",-7.799,-1.016,-8.987,"(0.0, 0.0, 0.0, 0.0, 0.0, 0.0, 0.0, 0.0, 0.0)",0,0,0,,-0.1127,-0.4975,0.6534,"(0.0, 0.0, 0.0, 0.0, 0.0, 0.0, 0.0, 0.0, 0.0)","b'$VNYMR,+096.357,+001.845,+010.822,-00.1127,-00.4975,+00.6534,-07.799,-01.016,-08.987,+00.691875,+01.974264,-00.505874*63\r\n'"
1678251220.9593577,108,1678251220,914432764,IMU1_Frame,0,0,0,,0.04425796327083306,0.10340577420873484,0.7365149443798192,0.6670039094732516,"(0.0, 0.0, 0.0, 0.0, 0.0, 0.0, 0.0, 0.0, 0.0)",1.304366,1.148223,-0.4017,"(0.0, 0.0, 0.0, 0.0, 0.0, 0.0, 0.0, 0.0, 0.0)",-6.192,-0.793,-6.138,"(0.0, 0.0, 0.0, 0.0, 0.0, 0.0, 0.0, 0.0, 0.0)",0,0,0,,-0.0838,-0.486,0.6362,"(0.0, 0.0, 0.0, 0.0, 0.0, 0.0, 0.0, 0.0, 0.0)","b'$VNYMR,+096.118,+004.172,+012.235,-00.0838,-00.4860,+00.6362,-06.192,-00.793,-06.138,+01.304366,+01.148223,-00.401709*6A\r\n'"
1678251220.9593954,109,1678251220,939469099,IMU1_Frame,0,0,0,,0.05024538159986689,0.12277119238625261,0.7303030714828329,0.6701194369145561,"(0.0, 0.0, 0.0, 0.0, 0.0, 0.0, 0.0, 0.0, 0.0)",1.297415,0.632386,-0.85207,"(0.0, 0.0, 0.0, 0.0, 0.0, 0.0, 0.0, 0.0, 0.0)",-3.761,-4.925,-9.378,"(0.0, 0.0, 0.0, 0.0, 0.0, 0.0, 0.0, 0.0, 0.0)",0,0,0,,-0.0386,-0.4492,0.6331,"(0.0, 0.0, 0.0, 0.0, 0.0, 0.0, 0.0, 0.0, 0.0)","b'$VNYMR,+095.580,+005.230,+014.341,-00.0386,-00.4492,+00.6331,-03.761,-04.925,-09.378,+01.297415,+00.632386,-00.852074*6E\r\n'"
1678251221.0033715,110,1678251220,964497089,IMU1_Frame,0,0,0,,0.0460422796834551,0.13750194221437909,0.719017831599893,0.6796960219173067,"(0.0, 0.0, 0.0, 0.0, 0.0, 0.0, 0.0, 0.0, 0.0)",0.355032,0.919774,-1.33414,"(0.0, 0.0, 0.0, 0.0, 0.0, 0.0, 0.0, 0.0, 0.0)",2.114,-2.284,-6.167,"(0.0, 0.0, 0.0, 0.0, 0.0, 0.0, 0.0, 0.0, 0.0)",0,0,0,,0.0329,-0.4265,0.623,"(0.0, 0.0, 0.0, 0.0, 0.0, 0.0, 0.0, 0.0, 0.0)","b'$VNYMR,+094.147,+006.933,+015.203,+00.0329,-00.4265,+00.6230,+02.114,-02.284,-06.167,+00.355032,+00.919774,-01.334146*6C\r\n'"
1678251221.0046084,111,1678251220,989449501,IMU1_Frame,0,0,0,,0.04496152591330821,0.14623700481568178,0.7072404285226651,0.6902203821049928,"(0.0, 0.0, 0.0, 0.0, 0.0, 0.0, 0.0, 0.0, 0.0)",0.845651,-0.172338,-1.34875,"(0.0, 0.0, 0.0, 0.0, 0.0, 0.0, 0.0, 0.0, 0.0)",8.024,-0.628,-3.251,"(0.0, 0.0, 0.0, 0.0, 0.0, 0.0, 0.0, 0.0, 0.0)",0,0,0,,0.1496,-0.3681,0.601,"(0.0, 0.0, 0.0, 0.0, 0.0, 0.0, 0.0, 0.0, 0.0)","b'$VNYMR,+092.497,+007.948,+015.755,+00.1496,-00.3681,+00.6010,+08.024,-00.628,-03.251,+00.845651,-00.172338,-01.348751*64\r\n'"
1678251221.0473704,112,1678251221,14550685,IMU1_Frame,0,0,0,,0.06255195648668929,0.1469025296191911,0.6955389393083583,0.7005230070718405,"(0.0, 0.0, 0.0, 0.0, 0.0, 0.0, 0.0, 0.0, 0.0)",1.159547,-1.626908,-0.59683,"(0.0, 0.0, 0.0, 0.0, 0.0, 0.0, 0.0, 0.0, 0.0)",12.264,1.419,-4.085,"(0.0, 0.0, 0.0, 0.0, 0.0, 0.0, 0.0, 0.0, 0.0)",0,0,0,,0.298,-0.1957,0.5379,"(0.0, 0.0, 0.0, 0.0, 0.0, 0.0, 0.0, 0.0, 0.0)","b'$VNYMR,+090.618,+006.823,+017.102,+00.2980,-00.1957,+00.5379,+12.264,+01.419,-04.085,+01.159547,-01.626908,-00.596832*6F\r\n'"
1678251221.0913386,113,1678251221,39545059,IMU1_Frame,0,0,0,,0.08961440926149253,0.13874078726590916,0.6927654965377663,0.7019944575339121,"(0.0, 0.0, 0.0, 0.0, 0.0, 0.0, 0.0, 0.0, 0.0)",1.084482,-2.107086,0.54643,"(0.0, 0.0, 0.0, 0.0, 0.0, 0.0, 0.0, 0.0, 0.0)",10.852,-0.708,-11.407,"(0.0, 0.0, 0.0, 0.0, 0.0, 0.0, 0.0, 0.0, 0.0)",0,0,0,,0.2317,0.0523,0.3748,"(0.0, 0.0, 0.0, 0.0, 0.0, 0.0, 0.0, 0.0, 0.0)","b'$VNYMR,+089.905,+004.050,+018.593,+00.2317,+00.0523,+00.3748,+10.852,-00.708,-11.407,+01.084482,-02.107086,+00.546431*63\r\n'"
1678251221.0913746,114,1678251221,64469814,IMU1_Frame,0,0,0,,0.11533406543387237,0.12838110230644312,0.6947899226307498,0.6982000496504095,"(0.0, 0.0, 0.0, 0.0, 0.0, 0.0, 0.0, 0.0, 0.0)",0.690044,-1.815472,0.71836,"(0.0, 0.0, 0.0, 0.0, 0.0, 0.0, 0.0, 0.0, 0.0)",11.254,-4.114,-11.798,"(0.0, 0.0, 0.0, 0.0, 0.0, 0.0, 0.0, 0.0, 0.0)",0,0,0,,-0.0617,0.0173,0.3708,"(0.0, 0.0, 0.0, 0.0, 0.0, 0.0, 0.0, 0.0, 0.0)","b'$VNYMR,+089.910,+001.089,+019.847,-00.0617,+00.0173,+00.3708,+11.254,-04.114,-11.798,+00.690044,-01.815472,+00.718364*64\r\n'"
1678251221.1353815,115,1678251221,89371442,IMU1_Frame,0,0,0,,0.13854124146369515,0.11792515063343818,0.6958892414205716,0.6947216326967804,"(0.0, 0.0, 0.0, 0.0, 0.0, 0.0, 0.0, 0.0, 0.0)",0.702075,-1.730505,0.47694,"(0.0, 0.0, 0.0, 0.0, 0.0, 0.0, 0.0, 0.0, 0.0)",12.355,-2.363,-12.234,"(0.0, 0.0, 0.0, 0.0, 0.0, 0.0, 0.0, 0.0, 0.0)",0,0,0,,-0.0821,-0.0927,0.533,"(0.0, 0.0, 0.0, 0.0, 0.0, 0.0, 0.0, 0.0, 0.0)","b'$VNYMR,+089.790,-001.660,+020.902,-00.0821,-00.0927,+00.5330,+12.355,-02.363,-12.234,+00.702075,-01.730505,+00.476944*67\r\n'"
1678251221.1354346,116,1678251221,114388942,IMU1_Frame,0,0,0,,0.15429043335002976,0.10828574830607621,0.6966381639705963,0.6922166766194885,"(0.0, 0.0, 0.0, 0.0, 0.0, 0.0, 0.0, 0.0, 0.0)",0.074192,-1.128916,0.44255,"(0.0, 0.0, 0.0, 0.0, 0.0, 0.0, 0.0, 0.0, 0.0)",16.104,2.692,-15.738,"(0.0, 0.0, 0.0, 0.0, 0.0, 0.0, 0.0, 0.0, 0.0)",0,0,0,,-0.0775,-0.1274,0.5716,"(0.0, 0.0, 0.0, 0.0, 0.0, 0.0, 0.0, 0.0, 0.0)","b'$VNYMR,+089.659,-003.730,+021.423,-00.0775,-00.1274,+00.5716,+16.104,+02.692,-15.738,+00.074192,-01.128916,+00.442551*69\r\n'"
1678251221.1834216,117,1678251221,139468193,IMU1_Frame,0,0,0,,0.15910270446376604,0.09740964518984803,0.7007001768962305,0.6886341209625723,"(0.0, 0.0, 0.0, 0.0, 0.0, 0.0, 0.0, 0.0, 0.0)",-0.459136,0.171385,0.63109,"(0.0, 0.0, 0.0, 0.0, 0.0, 0.0, 0.0, 0.0, 0.0)",16.633,4.205,-17.04,"(0.0, 0.0, 0.0, 0.0, 0.0, 0.0, 0.0, 0.0, 0.0)",0,0,0,,-0.0873,-0.1405,0.5626,"(0.0, 0.0, 0.0, 0.0, 0.0, 0.0, 0.0, 0.0, 0.0)","b'$VNYMR,+090.054,-005.095,+020.919,-00.0873,-00.1405,+00.5626,+16.633,+04.205,-17.040,-00.459136,+00.171385,+00.631094*6D\r\n'"
1678251221.1834621,118,1678251221,164314985,IMU1_Frame,0,0,0,,0.14932392136462952,0.0956258457695402,0.7125717817370428,0.678822156386521,"(0.0, 0.0, 0.0, 0.0, 0.0, 0.0, 0.0, 0.0, 0.0)",-0.580806,1.030464,1.3349,"(0.0, 0.0, 0.0, 0.0, 0.0, 0.0, 0.0, 0.0, 0.0)",9.573,-1.36,-12.087,"(0.0, 0.0, 0.0, 0.0, 0.0, 0.0, 0.0, 0.0, 0.0)",0,0,0,,-0.0955,-0.1225,0.566,"(0.0, 0.0, 0.0, 0.0, 0.0, 0.0, 0.0, 0.0, 0.0)","b'$VNYMR,+091.944,-004.760,+019.888,-00.0955,-00.1225,+00.5660,+09.573,-01.360,-12.087,-00.580806,+01.030464,+01.334905*6C\r\n'"
1678251221.2273552,119,1678251221,189475536,IMU1_Frame,0,0,0,,0.13556511976660734,0.09994478520684807,0.7228429227191483,0.670172550383453,"(0.0, 0.0, 0.0, 0.0, 0.0, 0.0, 0.0, 0.0, 0.0)",-0.366469,1.233482,0.45377,"(0.0, 0.0, 0.0, 0.0, 0.0, 0.0, 0.0, 0.0, 0.0)",5.223,-7.241,-6.921,"(0.0, 0.0, 0.0, 0.0, 0.0, 0.0, 0.0, 0.0, 0.0)",0,0,0,,-0.0895,-0.0859,0.5429,"(0.0, 0.0, 0.0, 0.0, 0.0, 0.0, 0.0, 0.0, 0.0)","b'$VNYMR,+093.733,-003.556,+019.076,-00.0895,-00.0859,+00.5429,+05.223,-07.241,-06.921,-00.366469,+01.233482,+00.453773*6B\r\n'"
1678251221.2288852,120,1678251221,214320421,IMU1_Frame,0,0,0,,0.12393995349632767,0.10278838244821104,0.724415696035071,0.6702949617138949,"(0.0, 0.0, 0.0, 0.0, 0.0, 0.0, 0.0, 0.0, 0.0)",-0.578275,0.562855,-0.24578,"(0.0, 0.0, 0.0, 0.0, 0.0, 0.0, 0.0, 0.0, 0.0)",6.03,-5.582,-5.517,"(0.0, 0.0, 0.0, 0.0, 0.0, 0.0, 0.0, 0.0, 0.0)",0,0,0,,-0.0749,-0.0505,0.4971,"(0.0, 0.0, 0.0, 0.0, 0.0, 0.0, 0.0, 0.0, 0.0)","b'$VNYMR,+094.057,-002.394,+018.382,-00.0749,-00.0505,+00.4971,+06.030,-05.582,-05.517,-00.578275,+00.562855,-00.245783*6F\r\n'"
1678251221.2713947,121,1678251221,239515542,IMU1_Frame,0,0,0,,0.11473460002958039,0.10120570167624954,0.7237056645090874,0.6729364670321639,"(0.0, 0.0, 0.0, 0.0, 0.0, 0.0, 0.0, 0.0, 0.0)",-0.595119,0.390095,-0.14898,"(0.0, 0.0, 0.0, 0.0, 0.0, 0.0, 0.0, 0.0, 0.0)",9.147,-2.988,-8.333,"(0.0, 0.0, 0.0, 0.0, 0.0, 0.0, 0.0, 0.0, 0.0)",0,0,0,,-0.0187,0.0005,0.4216,"(0.0, 0.0, 0.0, 0.0, 0.0, 0.0, 0.0, 0.0, 0.0)","b'$VNYMR,+093.900,-001.711,+017.520,-00.0187,+00.0005,+00.4216,+09.147,-02.988,-08.333,-00.595119,+00.390095,-00.148982*63\r\n'"
1678251221.31936,122,1678251221,264444589,IMU1_Frame,0,0,0,,0.1006746096071404,0.10563815112368634,0.7236660306500363,0.6745462772047889,"(0.0, 0.0, 0.0, 0.0, 0.0, 0.0, 0.0, 0.0, 0.0)",-0.68805,1.548799,-0.48417,"(0.0, 0.0, 0.0, 0.0, 0.0, 0.0, 0.0, 0.0, 0.0)",8.805,-3.053,-4.462,"(0.0, 0.0, 0.0, 0.0, 0.0, 0.0, 0.0, 0.0, 0.0)",0,0,0,,0.141,0.0245,0.3717,"(0.0, 0.0, 0.0, 0.0, 0.0, 0.0, 0.0, 0.0, 0.0)","b'$VNYMR,+093.997,-000.183,+016.781,+00.1410,+00.0245,+00.3717,+08.805,-03.053,-04.462,-00.688050,+01.548799,-00.484176*63\r\n'"
1678251221.3194149,123,1678251221,289302110,IMU1_Frame,0,0,0,,0.08993261239565029,0.10294394137924225,0.7254225780975796,0.674593769128697,"(0.0, 0.0, 0.0, 0.0, 0.0, 0.0, 0.0, 0.0, 0.0)",-0.584929,0.015212,0.26454,"(0.0, 0.0, 0.0, 0.0, 0.0, 0.0, 0.0, 0.0, 0.0)",6.316,-3.004,-6.048,"(0.0, 0.0, 0.0, 0.0, 0.0, 0.0, 0.0, 0.0, 0.0)",0,0,0,,0.3168,-0.1114,0.4395,"(0.0, 0.0, 0.0, 0.0, 0.0, 0.0, 0.0, 0.0, 0.0)","b'$VNYMR,+094.225,+000.482,+015.706,+00.3168,-00.1114,+00.4395,+06.316,-03.004,-06.048,-00.584929,+00.015212,+00.264545*6A\r\n'"
1678251221.3634336,124,1678251221,314327955,IMU1_Frame,0,0,0,,0.08623511424899377,0.09535211765975578,0.7269452176109452,0.6745532813061088,"(0.0, 0.0, 0.0, 0.0, 0.0, 0.0, 0.0, 0.0, 0.0)",-0.55168,-0.198356,-0.0707,"(0.0, 0.0, 0.0, 0.0, 0.0, 0.0, 0.0, 0.0, 0.0)",4.802,-6.216,-9.883,"(0.0, 0.0, 0.0, 0.0, 0.0, 0.0, 0.0, 0.0, 0.0)",0,0,0,,0.3078,-0.3106,0.5329,"(0.0, 0.0, 0.0, 0.0, 0.0, 0.0, 0.0, 0.0, 0.0)","b'$VNYMR,+094.306,+000.187,+014.772,+00.3078,-00.3106,+00.5329,+04.802,-06.216,-09.883,-00.551680,-00.198356,-00.070703*61\r\n'"
1678251221.3634794,125,1678251221,339150428,IMU1_Frame,0,0,0,,0.08920227944056841,0.09381600419221542,0.7217548921986989,0.6799348397363216,"(0.0, 0.0, 0.0, 0.0, 0.0, 0.0, 0.0, 0.0, 0.0)",0.305864,-0.362518,-0.77692,"(0.0, 0.0, 0.0, 0.0, 0.0, 0.0, 0.0, 0.0, 0.0)",3.455,-4.999,-12.781,"(0.0, 0.0, 0.0, 0.0, 0.0, 0.0, 0.0, 0.0, 0.0)",0,0,0,,0.2251,-0.42,0.5881,"(0.0, 0.0, 0.0, 0.0, 0.0, 0.0, 0.0, 0.0, 0.0)","b'$VNYMR,+093.409,-000.068,+014.876,+00.2251,-00.4200,+00.5881,+03.455,-04.999,-12.781,+00.305864,-00.362518,-00.776922*62\r\n'"
1678251221.4113936,126,1678251221,364120006,IMU1_Frame,0,0,0,,0.10022770366927312,0.10226385578234297,0.7074184203293261,0.6921384903301311,"(0.0, 0.0, 0.0, 0.0, 0.0, 0.0, 0.0, 0.0, 0.0)",-0.184434,-0.004107,-0.34479,"(0.0, 0.0, 0.0, 0.0, 0.0, 0.0, 0.0, 0.0, 0.0)",12.529,16.693,-10.964,"(0.0, 0.0, 0.0, 0.0, 0.0, 0.0, 0.0, 0.0, 0.0)",0,0,0,,0.1586,-0.4519,0.6313,"(0.0, 0.0, 0.0, 0.0, 0.0, 0.0, 0.0, 0.0, 0.0)","b'$VNYMR,+091.249,-000.014,+016.465,+00.1586,-00.4519,+00.6313,+12.529,+16.693,-10.964,-00.184434,-00.004107,-00.344793*66\r\n'"
1678251221.4114463,127,1678251221,389310359,IMU1_Frame,0,0,0,,0.0601172162524025,0.09965855067962989,0.731554283613646,0.6717755754067148,"(0.0, 0.0, 0.0, 0.0, 0.0, 0.0, 0.0, 0.0, 0.0)",-1.346787,2.235525,1.6913,"(0.0, 0.0, 0.0, 0.0, 0.0, 0.0, 0.0, 0.0, 0.0)",-2.167,-5.58,-9.028,"(0.0, 0.0, 0.0, 0.0, 0.0, 0.0, 0.0, 0.0, 0.0)",0,0,0,,0.021,-0.4997,0.6324,"(0.0, 0.0, 0.0, 0.0, 0.0, 0.0, 0.0, 0.0, 0.0)","b'$VNYMR,+095.181,+002.633,+013.110,+00.0210,-00.4997,+00.6324,-02.167,-05.580,-09.028,-01.346787,+02.235525,+01.691307*67\r\n'"
1678251221.459369,128,1678251221,414120912,IMU1_Frame,0,0,0,,0.054324692457336746,0.10062188597509789,0.7383946874758752,0.6646031517828024,"(0.0, 0.0, 0.0, 0.0, 0.0, 0.0, 0.0, 0.0, 0.0)",-0.776788,0.071496,0.86971,"(0.0, 0.0, 0.0, 0.0, 0.0, 0.0, 0.0, 0.0, 0.0)",-1.449,-0.392,-6.157,"(0.0, 0.0, 0.0, 0.0, 0.0, 0.0, 0.0, 0.0, 0.0)",0,0,0,,-0.0439,-0.5026,0.6513,"(0.0, 0.0, 0.0, 0.0, 0.0, 0.0, 0.0, 0.0, 0.0)","b'$VNYMR,+096.365,+003.068,+012.775,-00.0439,-00.5026,+00.6513,-01.449,-00.392,-06.157,-00.776788,+00.071496,+00.869714*68\r\n'"
1678251221.4594176,129,1678251221,439178228,IMU1_Frame,0,0,0,,0.03328304688085093,0.08659162046920994,0.7429968287531168,0.6628347022581536,"(0.0, 0.0, 0.0, 0.0, 0.0, 0.0, 0.0, 0.0, 0.0)",-2.40929,0.768828,-0.35766,"(0.0, 0.0, 0.0, 0.0, 0.0, 0.0, 0.0, 0.0, 0.0)",-1.718,-2.512,-9.619,"(0.0, 0.0, 0.0, 0.0, 0.0, 0.0, 0.0, 0.0, 0.0)",0,0,0,,-0.0923,-0.5481,0.6455,"(0.0, 0.0, 0.0, 0.0, 0.0, 0.0, 0.0, 0.0, 0.0)","b'$VNYMR,+096.854,+003.746,+009.972,-00.0923,-00.5481,+00.6455,-01.718,-02.512,-09.619,-02.409290,+00.768828,-00.357663*6E\r\n'"
1678251221.5034068,130,1678251221,464090824,IMU1_Frame,0,0,0,,0.018628143053624403,0.07591359274799041,0.7419130762269696,0.6659242494802998,"(0.0, 0.0, 0.0, 0.0, 0.0, 0.0, 0.0, 0.0, 0.0)",-0.28291,-0.385158,0.00961,"(0.0, 0.0, 0.0, 0.0, 0.0, 0.0, 0.0, 0.0, 0.0)",-5.329,0.282,-6.899,"(0.0, 0.0, 0.0, 0.0, 0.0, 0.0, 0.0, 0.0, 0.0)",0,0,0,,-0.1449,-0.5814,0.651,"(0.0, 0.0, 0.0, 0.0, 0.0, 0.0, 0.0, 0.0, 0.0)","b'$VNYMR,+096.471,+004.213,+007.922,-00.1449,-00.5814,+00.6510,-05.329,+00.282,-06.899,-00.282910,-00.385158,+00.009612*6E\r\n'"
1678251221.5039015,131,1678251221,489237785,IMU1_Frame,0,0,0,,0.037877916356135355,0.07288173237289128,0.7431515668827532,0.6640626967226457,"(0.0, 0.0, 0.0, 0.0, 0.0, 0.0, 0.0, 0.0, 0.0)",0.434727,-1.441857,0.3318,"(0.0, 0.0, 0.0, 0.0, 0.0, 0.0, 0.0, 0.0, 0.0)",-7.025,-1.525,-9.464,"(0.0, 0.0, 0.0, 0.0, 0.0, 0.0, 0.0, 0.0, 0.0)",0,0,0,,-0.1927,-0.5736,0.6968,"(0.0, 0.0, 0.0, 0.0, 0.0, 0.0, 0.0, 0.0, 0.0)","b'$VNYMR,+096.619,+002.321,+009.135,-00.1927,-00.5736,+00.6968,-07.025,-01.525,-09.464,+00.434727,-01.441857,+00.331807*61\r\n'"
1678251221.5473268,132,1678251221,514048099,IMU1_Frame,0,0,0,,0.03157545548684669,0.05895826425469125,0.7411238284288678,0.6680287303865085,"(0.0, 0.0, 0.0, 0.0, 0.0, 0.0, 0.0, 0.0, 0.0)",-1.899642,0.337264,-1.04397,"(0.0, 0.0, 0.0, 0.0, 0.0, 0.0, 0.0, 0.0, 0.0)",-7.952,-2.872,-13.616,"(0.0, 0.0, 0.0, 0.0, 0.0, 0.0, 0.0, 0.0, 0.0)",0,0,0,,-0.2461,-0.5912,0.7187,"(0.0, 0.0, 0.0, 0.0, 0.0, 0.0, 0.0, 0.0, 0.0)","b'$VNYMR,+096.058,+001.832,+007.449,-00.2461,-00.5912,+00.7187,-07.952,-02.872,-13.616,-01.899642,+00.337264,-01.043975*6D\r\n'"
1678251221.5914028,133,1678251221,539224147,IMU1_Frame,0,0,0,,0.010342043962529666,0.04689854265177077,0.7331356933559843,0.6783845693640572,"(0.0, 0.0, 0.0, 0.0, 0.0, 0.0, 0.0, 0.0, 0.0)",-1.414044,0.239216,-0.83287,"(0.0, 0.0, 0.0, 0.0, 0.0, 0.0, 0.0, 0.0, 0.0)",-7.856,0.849,-8.344,"(0.0, 0.0, 0.0, 0.0, 0.0, 0.0, 0.0, 0.0, 0.0)",0,0,0,,-0.2782,-0.6082,0.7105,"(0.0, 0.0, 0.0, 0.0, 0.0, 0.0, 0.0, 0.0, 0.0)","b'$VNYMR,+094.558,+002.778,+004.755,-00.2782,-00.6082,+00.7105,-07.856,+00.849,-08.344,-01.414044,+00.239216,-00.832874*6F\r\n'"
1678251221.5914574,134,1678251221,564017772,IMU1_Frame,0,0,0,,0.010293014239871378,0.03562812268907761,0.7313527816284382,0.6809903079602938,"(0.0, 0.0, 0.0, 0.0, 0.0, 0.0, 0.0, 0.0, 0.0)",-0.843218,-0.917313,-0.05622,"(0.0, 0.0, 0.0, 0.0, 0.0, 0.0, 0.0, 0.0, 0.0)",-8.135,0.195,-9.643,"(0.0, 0.0, 0.0, 0.0, 0.0, 0.0, 0.0, 0.0, 0.0)",0,0,0,,-0.2781,-0.6037,0.6964,"(0.0, 0.0, 0.0, 0.0, 0.0, 0.0, 0.0, 0.0, 0.0)","b'$VNYMR,+094.148,+001.918,+003.794,-00.2781,-00.6037,+00.6964,-08.135,+00.195,-09.643,-00.843218,-00.917313,-00.056227*67\r\n'"
1678251221.6355615,135,1678251221,589141845,IMU1_Frame,0,0,0,,0.013738716256230006,0.02094424677267891,0.729258246492876,0.6837799325257298,"(0.0, 0.0, 0.0, 0.0, 0.0, 0.0, 0.0, 0.0, 0.0)",-0.4381,-0.848975,-0.38458,"(0.0, 0.0, 0.0, 0.0, 0.0, 0.0, 0.0, 0.0, 0.0)",-7.342,0.258,-15.651,"(0.0, 0.0, 0.0, 0.0, 0.0, 0.0, 0.0, 0.0, 0.0)",0,0,0,,-0.2734,-0.5871,0.6481,"(0.0, 0.0, 0.0, 0.0, 0.0, 0.0, 0.0, 0.0, 0.0)","b'$VNYMR,+093.699,+000.493,+002.828,-00.2734,-00.5871,+00.6481,-07.342,+00.258,-15.651,-00.438100,-00.848975,-00.384583*63\r\n'"
1678251221.635604,136,1678251221,614043474,IMU1_Frame,0,0,0,,0.021325001138142875,0.018078833422513412,0.7295322527761734,0.6833747817031741,"(0.0, 0.0, 0.0, 0.0, 0.0, 0.0, 0.0, 0.0, 0.0)",0.536304,-0.550472,0.52667,"(0.0, 0.0, 0.0, 0.0, 0.0, 0.0, 0.0, 0.0, 0.0)",-4.242,0.446,-12.182,"(0.0, 0.0, 0.0, 0.0, 0.0, 0.0, 0.0, 0.0, 0.0)",0,0,0,,-0.2705,-0.5504,0.6109,"(0.0, 0.0, 0.0, 0.0, 0.0, 0.0, 0.0, 0.0, 0.0)","b'$VNYMR,+093.732,-000.367,+003.183,-00.2705,-00.5504,+00.6109,-04.242,+00.446,-12.182,+00.536304,-00.550472,+00.526675*6E\r\n'"
1678251221.6793935,137,1678251221,638814210,IMU1_Frame,0,0,0,,0.030922316703005354,0.02101261690548409,0.7357693286338084,0.6761995085048917,"(0.0, 0.0, 0.0, 0.0, 0.0, 0.0, 0.0, 0.0, 0.0)",0.656414,-0.300926,0.7581,"(0.0, 0.0, 0.0, 0.0, 0.0, 0.0, 0.0, 0.0, 0.0)",-7.19,-1.888,-9.827,"(0.0, 0.0, 0.0, 0.0, 0.0, 0.0, 0.0, 0.0, 0.0)",0,0,0,,-0.2676,-0.5058,0.5901,"(0.0, 0.0, 0.0, 0.0, 0.0, 0.0, 0.0, 0.0, 0.0)","b'$VNYMR,+094.796,-000.979,+004.172,-00.2676,-00.5058,+00.5901,-07.190,-01.888,-09.827,+00.656414,-00.300926,+00.758100*69\r\n'"
1678251221.679454,138,1678251221,663947582,IMU1_Frame,0,0,0,,0.036195323858660734,0.023509411595999393,0.7374495619030105,0.6740217724571176,"(0.0, 0.0, 0.0, 0.0, 0.0, 0.0, 0.0, 0.0, 0.0)",0.412321,-0.0827,-0.08976,"(0.0, 0.0, 0.0, 0.0, 0.0, 0.0, 0.0, 0.0, 0.0)",-7.083,-2.014,-10.465,"(0.0, 0.0, 0.0, 0.0, 0.0, 0.0, 0.0, 0.0, 0.0)",0,0,0,,-0.2576,-0.486,0.5787,"(0.0, 0.0, 0.0, 0.0, 0.0, 0.0, 0.0, 0.0, 0.0)","b'$VNYMR,+095.094,-001.243,+004.789,-00.2576,-00.4860,+00.5787,-07.083,-02.014,-10.465,+00.412321,-00.082700,-00.089766*69\r\n'"
1678251221.7234142,139,1678251221,689052104,IMU1_Frame,0,0,0,,0.040003163085910676,0.02596699156620637,0.7368232443879688,0.6744011927789795,"(0.0, 0.0, 0.0, 0.0, 0.0, 0.0, 0.0, 0.0, 0.0)",0.379335,-0.141093,0.14371,"(0.0, 0.0, 0.0, 0.0, 0.0, 0.0, 0.0, 0.0, 0.0)",-5.897,1.532,-8.333,"(0.0, 0.0, 0.0, 0.0, 0.0, 0.0, 0.0, 0.0, 0.0)",0,0,0,,-0.2459,-0.483,0.5866,"(0.0, 0.0, 0.0, 0.0, 0.0, 0.0, 0.0, 0.0, 0.0)","b'$VNYMR,+095.002,-001.371,+005.293,-00.2459,-00.4830,+00.5866,-05.897,+01.532,-08.333,+00.379335,-00.141093,+00.143714*6E\r\n'"
1678251221.7282207,140,1678251221,713911056,IMU1_Frame,0,0,0,,0.04727185974506056,0.02770135387214402,0.7409073027334384,0.6693686391116294,"(0.0, 0.0, 0.0, 0.0, 0.0, 0.0, 0.0, 0.0, 0.0)",0.658672,-0.443918,0.71625,"(0.0, 0.0, 0.0, 0.0, 0.0, 0.0, 0.0, 0.0, 0.0)",-7.873,-0.702,-8.996,"(0.0, 0.0, 0.0, 0.0, 0.0, 0.0, 0.0, 0.0, 0.0)",0,0,0,,-0.2417,-0.4787,0.6172,"(0.0, 0.0, 0.0, 0.0, 0.0, 0.0, 0.0, 0.0, 0.0)","b'$VNYMR,+095.709,-001.889,+005.992,-00.2417,-00.4787,+00.6172,-07.873,-00.702,-08.996,+00.658672,-00.443918,+00.716251*66\r\n'"
1678251221.7754555,141,1678251221,738963603,IMU1_Frame,0,0,0,,0.05753394139758784,0.03327990345763087,0.744619130221358,0.6641721497635216,"(0.0, 0.0, 0.0, 0.0, 0.0, 0.0, 0.0, 0.0, 0.0)",1.043387,-0.225617,0.40692,"(0.0, 0.0, 0.0, 0.0, 0.0, 0.0, 0.0, 0.0, 0.0)",-7.84,-1.747,-9.683,"(0.0, 0.0, 0.0, 0.0, 0.0, 0.0, 0.0, 0.0, 0.0)",0,0,0,,-0.2388,-0.4844,0.6707,"(0.0, 0.0, 0.0, 0.0, 0.0, 0.0, 0.0, 0.0, 0.0)","b'$VNYMR,+096.386,-002.377,+007.244,-00.2388,-00.4844,+00.6707,-07.840,-01.747,-09.683,+01.043387,-00.225617,+00.406920*69\r\n'"
1678251221.8233626,142,1678251221,764611244,IMU1_Frame,0,0,0,,0.06513419968387724,0.04154329516794996,0.7460858168654529,0.6613528895607391,"(0.0, 0.0, 0.0, 0.0, 0.0, 0.0, 0.0, 0.0, 0.0)",0.726111,0.145383,0.11864,"(0.0, 0.0, 0.0, 0.0, 0.0, 0.0, 0.0, 0.0, 0.0)",-8.698,-3.118,-9.754,"(0.0, 0.0, 0.0, 0.0, 0.0, 0.0, 0.0, 0.0, 0.0)",0,0,0,,-0.2442,-0.4766,0.7391,"(0.0, 0.0, 0.0, 0.0, 0.0, 0.0, 0.0, 0.0, 0.0)","b'$VNYMR,+096.710,-002.421,+008.527,-00.2442,-00.4766,+00.7391,-08.698,-03.118,-09.754,+00.726111,+00.145383,+00.118641*6F\r\n'"
1678251221.8234074,143,1678251221,788761138,IMU1_Frame,0,0,0,,0.06390867142143755,0.048309488563930233,0.7448397050604416,0.662416552327395,"(0.0, 0.0, 0.0, 0.0, 0.0, 0.0, 0.0, 0.0, 0.0)",0.182198,0.692764,-0.31331,"(0.0, 0.0, 0.0, 0.0, 0.0, 0.0, 0.0, 0.0, 0.0)",-9.891,-1.088,-10.535,"(0.0, 0.0, 0.0, 0.0, 0.0, 0.0, 0.0, 0.0, 0.0)",0,0,0,,-0.2574,-0.493,0.7873,"(0.0, 0.0, 0.0, 0.0, 0.0, 0.0, 0.0, 0.0, 0.0)","b'$VNYMR,+096.563,-001.788,+009.016,-00.2574,-00.4930,+00.7873,-09.891,-01.088,-10.535,+00.182198,+00.692764,-00.313318*6C\r\n'"
1678251221.8674529,144,1678251221,814545392,IMU1_Frame,0,0,0,,0.05551465126490174,0.056411151548630314,0.7427422610929527,0.6648833274059607,"(0.0, 0.0, 0.0, 0.0, 0.0, 0.0, 0.0, 0.0, 0.0)",0.045297,0.944326,-0.26961,"(0.0, 0.0, 0.0, 0.0, 0.0, 0.0, 0.0, 0.0, 0.0)",-11.171,-0.99,-11.076,"(0.0, 0.0, 0.0, 0.0, 0.0, 0.0, 0.0, 0.0, 0.0)",0,0,0,,-0.2685,-0.5261,0.7772,"(0.0, 0.0, 0.0, 0.0, 0.0, 0.0, 0.0, 0.0, 0.0)","b'$VNYMR,+096.298,-000.427,+009.069,-00.2685,-00.5261,+00.7772,-11.171,-00.990,-11.076,+00.045297,+00.944326,-00.269619*69\r\n'"
1678251221.8675056,145,1678251221,839519739,IMU1_Frame,0,0,0,,0.05031445954019904,0.06834713925493363,0.7391863204733032,0.6681322528826036,"(0.0, 0.0, 0.0, 0.0, 0.0, 0.0, 0.0, 0.0, 0.0)",0.745994,0.780144,-0.47221,"(0.0, 0.0, 0.0, 0.0, 0.0, 0.0, 0.0, 0.0, 0.0)",-9.679,-1.166,-9.301,"(0.0, 0.0, 0.0, 0.0, 0.0, 0.0, 0.0, 0.0, 0.0)",0,0,0,,-0.238,-0.548,0.7362,"(0.0, 0.0, 0.0, 0.0, 0.0, 0.0, 0.0, 0.0, 0.0)","b'$VNYMR,+095.863,+000.971,+009.689,-00.2380,-00.5480,+00.7362,-09.679,-01.166,-09.301,+00.745994,+00.780144,-00.472210*6A\r\n'"
1678251221.915468,146,1678251221,864451885,IMU1_Frame,0,0,0,,0.0587282780513575,0.08232795367632159,0.7364127885787426,0.6689314630201453,"(0.0, 0.0, 0.0, 0.0, 0.0, 0.0, 0.0, 0.0, 0.0)",1.556559,-0.087184,-0.08523,"(0.0, 0.0, 0.0, 0.0, 0.0, 0.0, 0.0, 0.0, 0.0)",-8.563,-2.047,-6.952,"(0.0, 0.0, 0.0, 0.0, 0.0, 0.0, 0.0, 0.0, 0.0)",0,0,0,,-0.1646,-0.5442,0.7099,"(0.0, 0.0, 0.0, 0.0, 0.0, 0.0, 0.0, 0.0, 0.0)","b'$VNYMR,+095.635,+001.355,+011.530,-00.1646,-00.5442,+00.7099,-08.563,-02.047,-06.952,+01.556559,-00.087184,-00.085234*60\r\n'"
1678251221.91552,147,1678251221,889551877,IMU1_Frame,0,0,0,,0.07350747046893069,0.09344659409875229,0.7339244540474217,0.6687445563051682,"(0.0, 0.0, 0.0, 0.0, 0.0, 0.0, 0.0, 0.0, 0.0)",1.343761,-0.202252,-0.00515,"(0.0, 0.0, 0.0, 0.0, 0.0, 0.0, 0.0, 0.0, 0.0)",-5.555,-0.67,-9.476,"(0.0, 0.0, 0.0, 0.0, 0.0, 0.0, 0.0, 0.0, 0.0)",0,0,0,,-0.0855,-0.5138,0.6924,"(0.0, 0.0, 0.0, 0.0, 0.0, 0.0, 0.0, 0.0, 0.0)","b'$VNYMR,+095.438,+000.979,+013.622,-00.0855,-00.5138,+00.6924,-05.555,-00.670,-09.476,+01.343761,-00.202252,-00.005153*69\r\n'"
1678251221.9593582,148,1678251221,914553403,IMU1_Frame,0,0,0,,0.07886731314025984,0.1020493103413081,0.7347286366804994,0.6659877743761625,"(0.0, 0.0, 0.0, 0.0, 0.0, 0.0, 0.0, 0.0, 0.0)",0.440472,0.595353,0.13089,"(0.0, 0.0, 0.0, 0.0, 0.0, 0.0, 0.0, 0.0, 0.0)",-3.876,-2.909,-10.654,"(0.0, 0.0, 0.0, 0.0, 0.0, 0.0, 0.0, 0.0, 0.0)",0,0,0,,-0.0395,-0.4893,0.6767,"(0.0, 0.0, 0.0, 0.0, 0.0, 0.0, 0.0, 0.0, 0.0)","b'$VNYMR,+095.768,+001.148,+014.777,-00.0395,-00.4893,+00.6767,-03.876,-02.909,-10.654,+00.440472,+00.595353,+00.130891*6B\r\n'"
1678251221.9594076,149,1678251221,939515113,IMU1_Frame,0,0,0,,0.07544719455967067,0.11653573319879179,0.735144064782893,0.6635437798181676,"(0.0, 0.0, 0.0, 0.0, 0.0, 0.0, 0.0, 0.0, 0.0)",1.173479,1.025484,0.14212,"(0.0, 0.0, 0.0, 0.0, 0.0, 0.0, 0.0, 0.0, 0.0)",-0.649,-1.384,-9.775,"(0.0, 0.0, 0.0, 0.0, 0.0, 0.0, 0.0, 0.0, 0.0)",0,0,0,,-0.0105,-0.4711,0.6594,"(0.0, 0.0, 0.0, 0.0, 0.0, 0.0, 0.0, 0.0, 0.0)","b'$VNYMR,+096.208,+002.506,+015.767,-00.0105,-00.4711,+00.6594,-00.649,-01.384,-09.775,+01.173479,+01.025484,+00.142126*6C\r\n'"
1678251222.0034914,150,1678251221,964344739,IMU1_Frame,0,0,0,,0.08123680467712857,0.13331473609477568,0.7352252580310357,0.6595995623550909,"(0.0, 0.0, 0.0, 0.0, 0.0, 0.0, 0.0, 0.0, 0.0)",1.250256,0.281027,0.12314,"(0.0, 0.0, 0.0, 0.0, 0.0, 0.0, 0.0, 0.0, 0.0)",3.111,-2.669,-8.601,"(0.0, 0.0, 0.0, 0.0, 0.0, 0.0, 0.0, 0.0, 0.0)",0,0,0,,0.0441,-0.4457,0.6591,"(0.0, 0.0, 0.0, 0.0, 0.0, 0.0, 0.0, 0.0, 0.0)","b'$VNYMR,+096.710,+003.234,+017.679,+00.0441,-00.4457,+00.6591,+03.111,-02.669,-08.601,+01.250256,+00.281027,+00.123146*6D\r\n'"
1678251222.0041523,151,1678251221,989447593,IMU1_Frame,0,0,0,,0.08262583868835562,0.14597120276117473,0.7307615105359512,0.6617046119415496,"(0.0, 0.0, 0.0, 0.0, 0.0, 0.0, 0.0, 0.0, 0.0)",0.499007,0.874136,-0.89983,"(0.0, 0.0, 0.0, 0.0, 0.0, 0.0, 0.0, 0.0, 0.0)",7.438,-3.426,-10.599,"(0.0, 0.0, 0.0, 0.0, 0.0, 0.0, 0.0, 0.0, 0.0)",0,0,0,,0.1499,-0.4049,0.6434,"(0.0, 0.0, 0.0, 0.0, 0.0, 0.0, 0.0, 0.0, 0.0)","b'$VNYMR,+096.369,+004.153,+018.877,+00.1499,-00.4049,+00.6434,+07.438,-03.426,-10.599,+00.499007,+00.874136,-00.899838*6E\r\n'"
1678251222.047354,152,1678251222,14570474,IMU1_Frame,0,0,0,,0.07714347597604397,0.15615492608221784,0.7240314234267852,0.6674151789292584,"(0.0, 0.0, 0.0, 0.0, 0.0, 0.0, 0.0, 0.0, 0.0)",0.379843,0.385617,-0.63119,"(0.0, 0.0, 0.0, 0.0, 0.0, 0.0, 0.0, 0.0, 0.0)",8.174,-0.703,-4.836,"(0.0, 0.0, 0.0, 0.0, 0.0, 0.0, 0.0, 0.0, 0.0)",0,0,0,,0.2961,-0.2971,0.6012,"(0.0, 0.0, 0.0, 0.0, 0.0, 0.0, 0.0, 0.0, 0.0)","b'$VNYMR,+095.605,+005.551,+019.308,+00.2961,-00.2971,+00.6012,+08.174,-00.703,-04.836,+00.379843,+00.385617,-00.631191*64\r\n'"
1678251222.0914805,153,1678251222,39472103,IMU1_Frame,0,0,0,,0.08998882006763592,0.15649740310617455,0.7196325265637722,0.6704771448716949,"(0.0, 0.0, 0.0, 0.0, 0.0, 0.0, 0.0, 0.0, 0.0)",0.757641,-1.387913,-0.06292,"(0.0, 0.0, 0.0, 0.0, 0.0, 0.0, 0.0, 0.0, 0.0)",9.265,-2.421,-7.596,"(0.0, 0.0, 0.0, 0.0, 0.0, 0.0, 0.0, 0.0, 0.0)",0,0,0,,0.4434,-0.0298,0.4213,"(0.0, 0.0, 0.0, 0.0, 0.0, 0.0, 0.0, 0.0, 0.0)","b'$VNYMR,+094.876,+004.608,+020.306,+00.4434,-00.0298,+00.4213,+09.265,-02.421,-07.596,+00.757641,-01.387913,-00.062923*6D\r\n'"
1678251222.091635,154,1678251222,64418077,IMU1_Frame,0,0,0,,0.10348557108635885,0.14854026964298744,0.7165934234090816,0.673587700598943,"(0.0, 0.0, 0.0, 0.0, 0.0, 0.0, 0.0, 0.0, 0.0)",-0.186951,-0.850565,-0.20618,"(0.0, 0.0, 0.0, 0.0, 0.0, 0.0, 0.0, 0.0, 0.0)",10.679,-3.978,-12.21,"(0.0, 0.0, 0.0, 0.0, 0.0, 0.0, 0.0, 0.0, 0.0)",0,0,0,,0.1022,0.2442,0.0749,"(0.0, 0.0, 0.0, 0.0, 0.0, 0.0, 0.0, 0.0, 0.0)","b'$VNYMR,+094.085,+002.969,+020.657,+00.1022,+00.2442,+00.0749,+10.679,-03.978,-12.210,-00.186951,-00.850565,-00.206180*69\r\n'"
1678251222.1355112,155,1678251222,89350223,IMU1_Frame,0,0,0,,0.10176189675498497,0.14211180126822595,0.7157914341314607,0.6760853312512815,"(0.0, 0.0, 0.0, 0.0, 0.0, 0.0, 0.0, 0.0, 0.0)",-0.451321,-0.05186,-0.06645,"(0.0, 0.0, 0.0, 0.0, 0.0, 0.0, 0.0, 0.0, 0.0)",11.964,-1.68,-11.03,"(0.0, 0.0, 0.0, 0.0, 0.0, 0.0, 0.0, 0.0, 0.0)",0,0,0,,-0.2301,0.0249,0.3058,"(0.0, 0.0, 0.0, 0.0, 0.0, 0.0, 0.0, 0.0, 0.0)","b'$VNYMR,+093.737,+002.664,+019.963,-00.2301,+00.0249,+00.3058,+11.964,-01.680,-11.030,-00.451321,-00.051860,-00.066454*6C\r\n'"
1678251222.135569,156,1678251222,114423274,IMU1_Frame,0,0,0,,0.10281351473795498,0.13945337019865037,0.7173150559504791,0.6748638745956311,"(0.0, 0.0, 0.0, 0.0, 0.0, 0.0, 0.0, 0.0, 0.0)",0.150406,-0.422947,0.34341,"(0.0, 0.0, 0.0, 0.0, 0.0, 0.0, 0.0, 0.0, 0.0)",12.069,-1.126,-7.491,"(0.0, 0.0, 0.0, 0.0, 0.0, 0.0, 0.0, 0.0, 0.0)",0,0,0,,-0.1792,-0.0724,0.4885,"(0.0, 0.0, 0.0, 0.0, 0.0, 0.0, 0.0, 0.0, 0.0)","b'$VNYMR,+093.901,+002.334,+019.823,-00.1792,-00.0724,+00.4885,+12.069,-01.126,-07.491,+00.150406,-00.422947,+00.343414*6E\r\n'"
1678251222.1793742,157,1678251222,139176845,IMU1_Frame,0,0,0,,0.11336928654984872,0.13289112712152948,0.7194239617946703,0.6722473625052082,"(0.0, 0.0, 0.0, 0.0, 0.0, 0.0, 0.0, 0.0, 0.0)",-0.033569,-1.081967,0.41958,"(0.0, 0.0, 0.0, 0.0, 0.0, 0.0, 0.0, 0.0, 0.0)",12.331,-2.02,-9.296,"(0.0, 0.0, 0.0, 0.0, 0.0, 0.0, 0.0, 0.0, 0.0)",0,0,0,,-0.1456,-0.0811,0.5453,"(0.0, 0.0, 0.0, 0.0, 0.0, 0.0, 0.0, 0.0, 0.0)","b'$VNYMR,+094.041,+000.891,+020.101,-00.1456,-00.0811,+00.5453,+12.331,-02.020,-09.296,-00.033569,-01.081967,+00.419582*62\r\n'"
1678251222.1794126,158,1678251222,164238929,IMU1_Frame,0,0,0,,0.11598862510186188,0.12219569861179677,0.7212359671256329,0.6718880336872415,"(0.0, 0.0, 0.0, 0.0, 0.0, 0.0, 0.0, 0.0, 0.0)",-0.813808,-0.271352,0.08215,"(0.0, 0.0, 0.0, 0.0, 0.0, 0.0, 0.0, 0.0, 0.0)",10.467,-2.803,-12.689,"(0.0, 0.0, 0.0, 0.0, 0.0, 0.0, 0.0, 0.0, 0.0)",0,0,0,,-0.1385,-0.0958,0.5584,"(0.0, 0.0, 0.0, 0.0, 0.0, 0.0, 0.0, 0.0, 0.0)","b'$VNYMR,+094.027,-000.178,+019.398,-00.1385,-00.0958,+00.5584,+10.467,-02.803,-12.689,-00.813808,-00.271352,+00.082156*68\r\n'"
1678251222.223427,159,1678251222,189345121,IMU1_Frame,0,0,0,,0.10243750119992268,0.11730436355815398,0.7236299762081388,0.6723882079358177,"(0.0, 0.0, 0.0, 0.0, 0.0, 0.0, 0.0, 0.0, 0.0)",-0.831187,0.913685,0.10634,"(0.0, 0.0, 0.0, 0.0, 0.0, 0.0, 0.0, 0.0, 0.0)",9.501,-0.674,-10.529,"(0.0, 0.0, 0.0, 0.0, 0.0, 0.0, 0.0, 0.0, 0.0)",0,0,0,,-0.1377,-0.1114,0.5598,"(0.0, 0.0, 0.0, 0.0, 0.0, 0.0, 0.0, 0.0, 0.0)","b'$VNYMR,+094.290,+000.544,+017.911,-00.1377,-00.1114,+00.5598,+09.501,-00.674,-10.529,-00.831187,+00.913685,+00.106340*61\r\n'"
1678251222.234117,160,1678251222,214300632,IMU1_Frame,0,0,0,,0.09517469816963432,0.11916807636154611,0.7281078345514856,0.6682811741096365,"(0.0, 0.0, 0.0, 0.0, 0.0, 0.0, 0.0, 0.0, 0.0)",-0.108369,0.385517,0.55057,"(0.0, 0.0, 0.0, 0.0, 0.0, 0.0, 0.0, 0.0, 0.0)",7.896,-0.933,-6.13,"(0.0, 0.0, 0.0, 0.0, 0.0, 0.0, 0.0, 0.0, 0.0)",0,0,0,,-0.1373,-0.0958,0.5152,"(0.0, 0.0, 0.0, 0.0, 0.0, 0.0, 0.0, 0.0, 0.0)","b'$VNYMR,+095.089,+001.185,+017.506,-00.1373,-00.0958,+00.5152,+07.896,-00.933,-06.130,-00.108369,+00.385517,+00.550574*6F\r\n'"
1678251222.2752204,161,1678251222,239304780,IMU1_Frame,0,0,0,,0.09213531348660411,0.11633612757815615,0.7352459159044985,0.6613549973914158,"(0.0, 0.0, 0.0, 0.0, 0.0, 0.0, 0.0, 0.0, 0.0)",-0.534747,0.110007,0.85216,"(0.0, 0.0, 0.0, 0.0, 0.0, 0.0, 0.0, 0.0, 0.0)",7.958,-3.485,-8.841,"(0.0, 0.0, 0.0, 0.0, 0.0, 0.0, 0.0, 0.0, 0.0)",0,0,0,,-0.1264,-0.0313,0.4207,"(0.0, 0.0, 0.0, 0.0, 0.0, 0.0, 0.0, 0.0, 0.0)","b'$VNYMR,+096.215,+001.054,+017.037,-00.1264,-00.0313,+00.4207,+07.958,-03.485,-08.841,-00.534747,+00.110007,+00.852165*62\r\n'"
1678251222.275262,162,1678251222,263985157,IMU1_Frame,0,0,0,,0.08184320636295478,0.11378762562589166,0.739823357228958,0.658039106683734,"(0.0, 0.0, 0.0, 0.0, 0.0, 0.0, 0.0, 0.0, 0.0)",-0.843047,0.847771,-0.07505,"(0.0, 0.0, 0.0, 0.0, 0.0, 0.0, 0.0, 0.0, 0.0)",7.53,-6.285,-8.793,"(0.0, 0.0, 0.0, 0.0, 0.0, 0.0, 0.0, 0.0, 0.0)",0,0,0,,0.0273,0.0608,0.3026,"(0.0, 0.0, 0.0, 0.0, 0.0, 0.0, 0.0, 0.0, 0.0)","b'$VNYMR,+096.928,+001.642,+016.033,+00.0273,+00.0608,+00.3026,+07.530,-06.285,-08.793,-00.843047,+00.847771,-00.075053*64\r\n'"
1678251222.323168,163,1678251222,288872480,IMU1_Frame,0,0,0,,0.061231554864692464,0.1146666375403354,0.7371076023827475,0.663155065903596,"(0.0, 0.0, 0.0, 0.0, 0.0, 0.0, 0.0, 0.0, 0.0)",-1.107362,1.282136,-0.86556,"(0.0, 0.0, 0.0, 0.0, 0.0, 0.0, 0.0, 0.0, 0.0)",7.557,-3.498,-5.951,"(0.0, 0.0, 0.0, 0.0, 0.0, 0.0, 0.0, 0.0, 0.0)",0,0,0,,0.3365,-0.0215,0.3666,"(0.0, 0.0, 0.0, 0.0, 0.0, 0.0, 0.0, 0.0, 0.0)","b'$VNYMR,+096.498,+003.544,+014.521,+00.3365,-00.0215,+00.3666,+07.557,-03.498,-05.951,-01.107362,+01.282136,-00.865568*64\r\n'"
1678251222.3231776,164,1678251222,313903331,IMU1_Frame,0,0,0,,0.05291313978606595,0.12037350920056716,0.7336565950918896,0.6666771470501269,"(0.0, 0.0, 0.0, 0.0, 0.0, 0.0, 0.0, 0.0, 0.0)",0.448897,0.007234,0.16172,"(0.0, 0.0, 0.0, 0.0, 0.0, 0.0, 0.0, 0.0, 0.0)",8.851,8.208,-6.598,"(0.0, 0.0, 0.0, 0.0, 0.0, 0.0, 0.0, 0.0, 0.0)",0,0,0,,0.3851,-0.2579,0.524,"(0.0, 0.0, 0.0, 0.0, 0.0, 0.0, 0.0, 0.0, 0.0)","b'$VNYMR,+096.076,+004.753,+014.361,+00.3851,-00.2579,+00.5240,+08.851,+08.208,-06.598,+00.448897,+00.007234,+00.161729*63\r\n'"
1678251222.3672192,165,1678251222,339232444,IMU1_Frame,0,0,0,,0.05138543655214291,0.11826999262063603,0.7471837275982958,0.6519879009369547,"(0.0, 0.0, 0.0, 0.0, 0.0, 0.0, 0.0, 0.0, 0.0)",-0.584225,0.438832,1.51571,"(0.0, 0.0, 0.0, 0.0, 0.0, 0.0, 0.0, 0.0, 0.0)",4.879,-4.981,-10.783,"(0.0, 0.0, 0.0, 0.0, 0.0, 0.0, 0.0, 0.0, 0.0)",0,0,0,,0.2232,-0.4077,0.5917,"(0.0, 0.0, 0.0, 0.0, 0.0, 0.0, 0.0, 0.0, 0.0)","b'$VNYMR,+098.336,+004.441,+014.151,+00.2232,-00.4077,+00.5917,+04.879,-04.981,-10.783,-00.584225,+00.438832,+01.515718*6C\r\n'"
1678251222.3689613,166,1678251222,364015817,IMU1_Frame,0,0,0,,0.02731863831398363,0.11578570773238062,0.7533143034008062,0.6468113497592167,"(0.0, 0.0, 0.0, 0.0, 0.0, 0.0, 0.0, 0.0, 0.0)",-1.519123,1.917412,-0.1232,"(0.0, 0.0, 0.0, 0.0, 0.0, 0.0, 0.0, 0.0, 0.0)",5.295,-1.975,-14.127,"(0.0, 0.0, 0.0, 0.0, 0.0, 0.0, 0.0, 0.0, 0.0)",0,0,0,,0.0753,-0.4899,0.6095,"(0.0, 0.0, 0.0, 0.0, 0.0, 0.0, 0.0, 0.0, 0.0)","b'$VNYMR,+099.366,+006.236,+012.183,+00.0753,-00.4899,+00.6095,+05.295,-01.975,-14.127,-01.519123,+01.917412,-00.123207*64\r\n'"
1678251222.4113784,167,1678251222,388995409,IMU1_Frame,0,0,0,,0.006172321405285855,0.11761977871072207,0.750958830100106,0.6497602062293371,"(0.0, 0.0, 0.0, 0.0, 0.0, 0.0, 0.0, 0.0, 0.0)",-0.297364,0.715036,-0.55828,"(0.0, 0.0, 0.0, 0.0, 0.0, 0.0, 0.0, 0.0, 0.0)",3.884,0.127,-9.079,"(0.0, 0.0, 0.0, 0.0, 0.0, 0.0, 0.0, 0.0, 0.0)",0,0,0,,-0.0303,-0.5229,0.6086,"(0.0, 0.0, 0.0, 0.0, 0.0, 0.0, 0.0, 0.0, 0.0)","b'$VNYMR,+099.043,+008.255,+010.755,-00.0303,-00.5229,+00.6086,+03.884,+00.127,-09.079,-00.297364,+00.715036,-00.558285*6F\r\n'"
1678251222.459478,168,1678251222,414068460,IMU1_Frame,0,0,0,,0.004351349044864478,0.1201080760498672,0.7482722826815038,0.652413754299908,"(0.0, 0.0, 0.0, 0.0, 0.0, 0.0, 0.0, 0.0, 0.0)",-0.215281,-0.078956,-0.19511,"(0.0, 0.0, 0.0, 0.0, 0.0, 0.0, 0.0, 0.0, 0.0)",2.645,-2.125,-8.133,"(0.0, 0.0, 0.0, 0.0, 0.0, 0.0, 0.0, 0.0, 0.0)",0,0,0,,-0.0907,-0.5181,0.6186,"(0.0, 0.0, 0.0, 0.0, 0.0, 0.0, 0.0, 0.0, 0.0)","b'$VNYMR,+098.649,+008.639,+010.810,-00.0907,-00.5181,+00.6186,+02.645,-02.125,-08.133,-00.215281,-00.078956,-00.195111*68\r\n'"
1678251222.4595187,169,1678251222,439308404,IMU1_Frame,0,0,0,,-0.006063794240423304,0.1109527673540813,0.7442308929193214,0.6586145244681374,"(0.0, 0.0, 0.0, 0.0, 0.0, 0.0, 0.0, 0.0, 0.0)",-1.205701,0.031389,-0.7648,"(0.0, 0.0, 0.0, 0.0, 0.0, 0.0, 0.0, 0.0, 0.0)",1.496,-2.116,-9.862,"(0.0, 0.0, 0.0, 0.0, 0.0, 0.0, 0.0, 0.0, 0.0)",0,0,0,,-0.126,-0.535,0.6205,"(0.0, 0.0, 0.0, 0.0, 0.0, 0.0, 0.0, 0.0, 0.0)","b'$VNYMR,+097.701,+008.927,+009.154,-00.1260,-00.5350,+00.6205,+01.496,-02.116,-09.862,-01.205701,+00.031389,-00.764802*68\r\n'"
1678251222.5034847,170,1678251222,464113950,IMU1_Frame,0,0,0,,-0.0034673302808535603,0.10456776264365465,0.7412449385320194,0.6630305435928925,"(0.0, 0.0, 0.0, 0.0, 0.0, 0.0, 0.0, 0.0, 0.0)",0.45337,-0.905014,-0.03858,"(0.0, 0.0, 0.0, 0.0, 0.0, 0.0, 0.0, 0.0, 0.0)",0.155,1.363,-9.62,"(0.0, 0.0, 0.0, 0.0, 0.0, 0.0, 0.0, 0.0, 0.0)",0,0,0,,-0.1623,-0.5464,0.6413,"(0.0, 0.0, 0.0, 0.0, 0.0, 0.0, 0.0, 0.0, 0.0)","b'$VNYMR,+097.009,+008.268,+008.743,-00.1623,-00.5464,+00.6413,+00.155,+01.363,-09.620,+00.453370,-00.905014,-00.038580*64\r\n'"
1678251222.5044994,171,1678251222,489038705,IMU1_Frame,0,0,0,,0.006183050936986692,0.1002075682956618,0.7424977281641568,0.6622819164135818,"(0.0, 0.0, 0.0, 0.0, 0.0, 0.0, 0.0, 0.0, 0.0)",-0.369807,-0.542284,0.22185,"(0.0, 0.0, 0.0, 0.0, 0.0, 0.0, 0.0, 0.0, 0.0)",-2.116,-0.376,-9.321,"(0.0, 0.0, 0.0, 0.0, 0.0, 0.0, 0.0, 0.0, 0.0)",0,0,0,,-0.2122,-0.5452,0.663,"(0.0, 0.0, 0.0, 0.0, 0.0, 0.0, 0.0, 0.0, 0.0)","b'$VNYMR,+097.102,+007.097,+009.103,-00.2122,-00.5452,+00.6630,-02.116,-00.376,-09.321,-00.369807,-00.542284,+00.221857*6B\r\n'"
1678251222.5473576,172,1678251222,513993501,IMU1_Frame,0,0,0,,-0.00704569937019317,0.08870233205624373,0.7432601574858112,0.6630585137846701,"(0.0, 0.0, 0.0, 0.0, 0.0, 0.0, 0.0, 0.0, 0.0)",-1.545769,0.45237,-0.3566,"(0.0, 0.0, 0.0, 0.0, 0.0, 0.0, 0.0, 0.0, 0.0)",-6.103,-3.626,-8.048,"(0.0, 0.0, 0.0, 0.0, 0.0, 0.0, 0.0, 0.0, 0.0)",0,0,0,,-0.3068,-0.5529,0.6762,"(0.0, 0.0, 0.0, 0.0, 0.0, 0.0, 0.0, 0.0, 0.0)","b'$VNYMR,+096.985,+007.360,+007.096,-00.3068,-00.5529,+00.6762,-06.103,-03.626,-08.048,-01.545769,+00.452370,-00.356603*64\r\n'"
1678251222.5916798,173,1678251222,538967132,IMU1_Frame,0,0,0,,-0.008516939763669525,0.08173685655097801,0.7382258411815744,0.6695290549557829,"(0.0, 0.0, 0.0, 0.0, 0.0, 0.0, 0.0, 0.0, 0.0)",0.423973,-1.069054,-0.75711,"(0.0, 0.0, 0.0, 0.0, 0.0, 0.0, 0.0, 0.0, 0.0)",-9.008,0.789,-3.971,"(0.0, 0.0, 0.0, 0.0, 0.0, 0.0, 0.0, 0.0, 0.0)",0,0,0,,-0.3976,-0.5151,0.7397,"(0.0, 0.0, 0.0, 0.0, 0.0, 0.0, 0.0, 0.0, 0.0)","b'$VNYMR,+095.975,+007.009,+006.321,-00.3976,-00.5151,+00.7397,-09.008,+00.789,-03.971,+00.423973,-01.069054,-00.757113*6A\r\n'"
1678251222.5917518,174,1678251222,563864231,IMU1_Frame,0,0,0,,0.016458602223571463,0.07043877920243549,0.7380769657493927,0.6708277613720878,"(0.0, 0.0, 0.0, 0.0, 0.0, 0.0, 0.0, 0.0, 0.0)",0.401598,-2.058103,0.6155,"(0.0, 0.0, 0.0, 0.0, 0.0, 0.0, 0.0, 0.0, 0.0)",-9.984,-0.557,-8.819,"(0.0, 0.0, 0.0, 0.0, 0.0, 0.0, 0.0, 0.0, 0.0)",0,0,0,,-0.3385,-0.4532,0.8307,"(0.0, 0.0, 0.0, 0.0, 0.0, 0.0, 0.0, 0.0, 0.0)","b'$VNYMR,+095.721,+004.026,+007.260,-00.3385,-00.4532,+00.8307,-09.984,-00.557,-08.819,+00.401598,-02.058103,+00.615501*6D\r\n'"
1678251222.6353874,175,1678251222,589134931,IMU1_Frame,0,0,0,,0.02912857975848042,0.05034419041465588,0.7406016482251206,0.6694222785200544,"(0.0, 0.0, 0.0, 0.0, 0.0, 0.0, 0.0, 0.0, 0.0)",-1.375501,-1.359105,-0.01095,"(0.0, 0.0, 0.0, 0.0, 0.0, 0.0, 0.0, 0.0, 0.0)",-12.665,-3.14,-12.028,"(0.0, 0.0, 0.0, 0.0, 0.0, 0.0, 0.0, 0.0, 0.0)",0,0,0,,-0.241,-0.4744,0.7544,"(0.0, 0.0, 0.0, 0.0, 0.0, 0.0, 0.0, 0.0, 0.0)","b'$VNYMR,+095.859,+001.390,+006.523,-00.2410,-00.4744,+00.7544,-12.665,-03.140,-12.028,-01.375501,-01.359105,-00.010954*67\r\n'"
1678251222.6354356,176,1678251222,614033222,IMU1_Frame,0,0,0,,0.02147381001215739,0.025151889912090754,0.7363169632177177,0.6758280754713065,"(0.0, 0.0, 0.0, 0.0, 0.0, 0.0, 0.0, 0.0, 0.0)",-1.689628,-1.008105,-0.86917,"(0.0, 0.0, 0.0, 0.0, 0.0, 0.0, 0.0, 0.0, 0.0)",-12.699,-1.894,-13.158,"(0.0, 0.0, 0.0, 0.0, 0.0, 0.0, 0.0, 0.0, 0.0)",0,0,0,,-0.2222,-0.5115,0.6269,"(0.0, 0.0, 0.0, 0.0, 0.0, 0.0, 0.0, 0.0, 0.0)","b'$VNYMR,+094.910,+000.136,+003.788,-00.2222,-00.5115,+00.6269,-12.699,-01.894,-13.158,-01.689628,-01.008105,-00.869175*6C\r\n'"
1678251222.6793933,177,1678251222,639137744,IMU1_Frame,0,0,0,,0.02040925061813577,0.008197331528753918,0.7289009169627173,0.6842658251702503,"(0.0, 0.0, 0.0, 0.0, 0.0, 0.0, 0.0, 0.0, 0.0)",-0.391389,-0.655468,-0.81777,"(0.0, 0.0, 0.0, 0.0, 0.0, 0.0, 0.0, 0.0, 0.0)",-8.162,0.46,-16.478,"(0.0, 0.0, 0.0, 0.0, 0.0, 0.0, 0.0, 0.0, 0.0)",0,0,0,,-0.218,-0.526,0.561,"(0.0, 0.0, 0.0, 0.0, 0.0, 0.0, 0.0, 0.0, 0.0)","b'$VNYMR,+093.597,-001.062,+002.286,-00.2180,-00.5260,+00.5610,-08.162,+00.460,-16.478,-00.391389,-00.655468,-00.817776*62\r\n'"
1678251222.6794424,178,1678251222,663982868,IMU1_Frame,0,0,0,,0.019627378323520392,0.004632941292027525,0.7256313701068982,0.6877880608093717,"(0.0, 0.0, 0.0, 0.0, 0.0, 0.0, 0.0, 0.0, 0.0)",-0.335862,0.001827,0.09155,"(0.0, 0.0, 0.0, 0.0, 0.0, 0.0, 0.0, 0.0, 0.0)",-4.681,3.624,-11.241,"(0.0, 0.0, 0.0, 0.0, 0.0, 0.0, 0.0, 0.0, 0.0)",0,0,0,,-0.2105,-0.5284,0.5472,"(0.0, 0.0, 0.0, 0.0, 0.0, 0.0, 0.0, 0.0, 0.0)","b'$VNYMR,+093.046,-001.267,+001.933,-00.2105,-00.5284,+00.5472,-04.681,+03.624,-11.241,-00.335862,+00.001827,+00.091554*63\r\n'"
1678251222.7236176,179,1678251222,689042806,IMU1_Frame,0,0,0,,0.022537733120165614,0.009114574986142715,0.7316131259013011,0.6812864369100219,"(0.0, 0.0, 0.0, 0.0, 0.0, 0.0, 0.0, 0.0, 0.0)",1.245869,-0.131363,0.63926,"(0.0, 0.0, 0.0, 0.0, 0.0, 0.0, 0.0, 0.0, 0.0)",-10.489,-2.713,-10.239,"(0.0, 0.0, 0.0, 0.0, 0.0, 0.0, 0.0, 0.0, 0.0)",0,0,0,,-0.2147,-0.5216,0.5763,"(0.0, 0.0, 0.0, 0.0, 0.0, 0.0, 0.0, 0.0, 0.0)","b'$VNYMR,+094.054,-001.178,+002.525,-00.2147,-00.5216,+00.5763,-10.489,-02.713,-10.239,+01.245869,-00.131363,+00.639265*6B\r\n'"
1678251222.7290285,180,1678251222,713935136,IMU1_Frame,0,0,0,,0.033849840652067587,0.01828634056526679,0.7336065305084707,0.6784845292502144,"(0.0, 0.0, 0.0, 0.0, 0.0, 0.0, 0.0, 0.0, 0.0)",0.959132,-0.261872,0.10097,"(0.0, 0.0, 0.0, 0.0, 0.0, 0.0, 0.0, 0.0, 0.0)",-10.792,-1.207,-7.869,"(0.0, 0.0, 0.0, 0.0, 0.0, 0.0, 0.0, 0.0, 0.0)",0,0,0,,-0.2138,-0.5184,0.6437,"(0.0, 0.0, 0.0, 0.0, 0.0, 0.0, 0.0, 0.0, 0.0)","b'$VNYMR,+094.419,-001.424,+004.174,-00.2138,-00.5184,+00.6437,-10.792,-01.207,-07.869,+00.959132,-00.261872,+00.100971*60\r\n'"
1678251222.7714028,181,1678251222,739007711,IMU1_Frame,0,0,0,,0.03724996128672332,0.02330695534969108,0.7316008007138991,0.680315731562373,"(0.0, 0.0, 0.0, 0.0, 0.0, 0.0, 0.0, 0.0, 0.0)",0.388013,0.375525,-0.27412,"(0.0, 0.0, 0.0, 0.0, 0.0, 0.0, 0.0, 0.0, 0.0)",-9.995,-0.109,-10.877,"(0.0, 0.0, 0.0, 0.0, 0.0, 0.0, 0.0, 0.0, 0.0)",0,0,0,,-0.2196,-0.5284,0.725,"(0.0, 0.0, 0.0, 0.0, 0.0, 0.0, 0.0, 0.0, 0.0)","b'$VNYMR,+094.105,-001.306,+004.865,-00.2196,-00.5284,+00.7250,-09.995,-00.109,-10.877,+00.388013,+00.375525,-00.274122*62\r\n'"
1678251222.8154597,182,1678251222,764651060,IMU1_Frame,0,0,0,,0.03672729556262231,0.032539155198129714,0.7326149584846041,0.6788723235957184,"(0.0, 0.0, 0.0, 0.0, 0.0, 0.0, 0.0, 0.0, 0.0)",0.576195,0.687672,0.32255,"(0.0, 0.0, 0.0, 0.0, 0.0, 0.0, 0.0, 0.0, 0.0)",-11.594,-1.864,-10.033,"(0.0, 0.0, 0.0, 0.0, 0.0, 0.0, 0.0, 0.0, 0.0)",0,0,0,,-0.2507,-0.541,0.7638,"(0.0, 0.0, 0.0, 0.0, 0.0, 0.0, 0.0, 0.0, 0.0)","b'$VNYMR,+094.334,-000.552,+005.598,-00.2507,-00.5410,+00.7638,-11.594,-01.864,-10.033,+00.576195,+00.687672,+00.322556*6A\r\n'"
1678251222.8154972,183,1678251222,788966655,IMU1_Frame,0,0,0,,0.02974726838732198,0.046097438236745635,0.7327744317671331,0.6782564104819484,"(0.0, 0.0, 0.0, 0.0, 0.0, 0.0, 0.0, 0.0, 0.0)",0.267749,1.393935,-0.41244,"(0.0, 0.0, 0.0, 0.0, 0.0, 0.0, 0.0, 0.0, 0.0)",-13.843,-4.983,-8.998,"(0.0, 0.0, 0.0, 0.0, 0.0, 0.0, 0.0, 0.0, 0.0)",0,0,0,,-0.2627,-0.5641,0.7434,"(0.0, 0.0, 0.0, 0.0, 0.0, 0.0, 0.0, 0.0, 0.0)","b'$VNYMR,+094.484,+001.085,+006.196,-00.2627,-00.5641,+00.7434,-13.843,-04.983,-08.998,+00.267749,+01.393935,-00.412444*6A\r\n'"
1678251222.859376,184,1678251222,814666032,IMU1_Frame,0,0,0,,0.021018128043997553,0.06250770845770309,0.726915352882741,0.6835532857212033,"(0.0, 0.0, 0.0, 0.0, 0.0, 0.0, 0.0, 0.0, 0.0)",0.923046,1.30139,-0.45984,"(0.0, 0.0, 0.0, 0.0, 0.0, 0.0, 0.0, 0.0, 0.0)",-8.691,2.114,-9.047,"(0.0, 0.0, 0.0, 0.0, 0.0, 0.0, 0.0, 0.0, 0.0)",0,0,0,,-0.2048,-0.6044,0.6918,"(0.0, 0.0, 0.0, 0.0, 0.0, 0.0, 0.0, 0.0, 0.0)","b'$VNYMR,+093.711,+003.147,+006.880,-00.2048,-00.6044,+00.6918,-08.691,+02.114,-09.047,+00.923046,+01.301390,-00.459848*69\r\n'"
1678251222.859424,185,1678251222,839531183,IMU1_Frame,0,0,0,,0.023079659651809456,0.07913760712866846,0.7288539884194054,0.6796884815953779,"(0.0, 0.0, 0.0, 0.0, 0.0, 0.0, 0.0, 0.0, 0.0)",1.020826,0.556762,0.45083,"(0.0, 0.0, 0.0, 0.0, 0.0, 0.0, 0.0, 0.0, 0.0)",-7.783,-1.665,-8.28,"(0.0, 0.0, 0.0, 0.0, 0.0, 0.0, 0.0, 0.0, 0.0)",0,0,0,,-0.1355,-0.5872,0.6691,"(0.0, 0.0, 0.0, 0.0, 0.0, 0.0, 0.0, 0.0, 0.0)","b'$VNYMR,+094.312,+004.240,+008.461,-00.1355,-00.5872,+00.6691,-07.783,-01.665,-08.280,+01.020826,+00.556762,+00.450836*65\r\n'"
1678251222.903482,186,1678251222,864538431,IMU1_Frame,0,0,0,,0.02641677986482479,0.09467036212523525,0.728870542426045,0.6775598930428315,"(0.0, 0.0, 0.0, 0.0, 0.0, 0.0, 0.0, 0.0, 0.0)",0.890052,0.957434,0.00561,"(0.0, 0.0, 0.0, 0.0, 0.0, 0.0, 0.0, 0.0, 0.0)",-2.732,-1.246,-11.699,"(0.0, 0.0, 0.0, 0.0, 0.0, 0.0, 0.0, 0.0, 0.0)",0,0,0,,-0.0798,-0.5562,0.6447,"(0.0, 0.0, 0.0, 0.0, 0.0, 0.0, 0.0, 0.0, 0.0)","b'$VNYMR,+094.632,+005.151,+010.050,-00.0798,-00.5562,+00.6447,-02.732,-01.246,-11.699,+00.890052,+00.957434,+00.005616*6C\r\n'"
1678251222.9040296,187,1678251222,888730049,IMU1_Frame,0,0,0,,0.023783554041428137,0.11316993655441068,0.7251484863087894,0.6788126257086713,"(0.0, 0.0, 0.0, 0.0, 0.0, 0.0, 0.0, 0.0, 0.0)",1.126437,1.045478,-0.48979,"(0.0, 0.0, 0.0, 0.0, 0.0, 0.0, 0.0, 0.0, 0.0)",-0.078,-2.139,-11.661,"(0.0, 0.0, 0.0, 0.0, 0.0, 0.0, 0.0, 0.0, 0.0)",0,0,0,,-0.0474,-0.5269,0.6324,"(0.0, 0.0, 0.0, 0.0, 0.0, 0.0, 0.0, 0.0, 0.0)","b'$VNYMR,+094.465,+006.843,+011.410,-00.0474,-00.5269,+00.6324,-00.078,-02.139,-11.661,+01.126437,+01.045478,-00.489793*64\r\n'"
1678251222.947441,188,1678251222,914572715,IMU1_Frame,0,0,0,,0.031287748507136434,0.13180708324539003,0.7193435792001127,0.6813169487567942,"(0.0, 0.0, 0.0, 0.0, 0.0, 0.0, 0.0, 0.0, 0.0)",1.666461,0.138454,-0.45133,"(0.0, 0.0, 0.0, 0.0, 0.0, 0.0, 0.0, 0.0, 0.0)",2.537,-0.807,-8.853,"(0.0, 0.0, 0.0, 0.0, 0.0, 0.0, 0.0, 0.0, 0.0)",0,0,0,,0.0093,-0.4994,0.636,"(0.0, 0.0, 0.0, 0.0, 0.0, 0.0, 0.0, 0.0, 0.0)","b'$VNYMR,+094.031,+007.735,+013.556,+00.0093,-00.4994,+00.6360,+02.537,-00.807,-08.853,+01.666461,+00.138454,-00.451337*6C\r\n'"
1678251222.9915166,189,1678251222,939522743,IMU1_Frame,0,0,0,,0.04044490337108207,0.1425504515117787,0.7125208304955009,0.685826249625292,"(0.0, 0.0, 0.0, 0.0, 0.0, 0.0, 0.0, 0.0, 0.0)",0.888953,-0.096196,-0.72003,"(0.0, 0.0, 0.0, 0.0, 0.0, 0.0, 0.0, 0.0, 0.0)",7.351,-1.252,-7.832,"(0.0, 0.0, 0.0, 0.0, 0.0, 0.0, 0.0, 0.0, 0.0)",0,0,0,,0.1141,-0.453,0.6367,"(0.0, 0.0, 0.0, 0.0, 0.0, 0.0, 0.0, 0.0, 0.0)","b'$VNYMR,+093.242,+007.926,+015.136,+00.1141,-00.4530,+00.6367,+07.351,-01.252,-07.832,+00.888953,-00.096196,-00.720033*66\r\n'"
1678251222.9915893,190,1678251222,964461088,IMU1_Frame,0,0,0,,0.043724175920660024,0.1485136012559411,0.7036199073628071,0.6935062599896306,"(0.0, 0.0, 0.0, 0.0, 0.0, 0.0, 0.0, 0.0, 0.0)",0.420372,0.077165,-0.77244,"(0.0, 0.0, 0.0, 0.0, 0.0, 0.0, 0.0, 0.0, 0.0)",10.027,1.43,-7.958,"(0.0, 0.0, 0.0, 0.0, 0.0, 0.0, 0.0, 0.0, 0.0)",0,0,0,,0.2678,-0.3387,0.6175,"(0.0, 0.0, 0.0, 0.0, 0.0, 0.0, 0.0, 0.0, 0.0)","b'$VNYMR,+091.985,+008.306,+015.813,+00.2678,-00.3387,+00.6175,+10.027,+01.430,-07.958,+00.420372,+00.077165,-00.772443*64\r\n'"
1678251223.0354533,191,1678251222,989507913,IMU1_Frame,0,0,0,,0.05040473136499586,0.1504511834563122,0.7012012623037969,0.6950831563174148,"(0.0, 0.0, 0.0, 0.0, 0.0, 0.0, 0.0, 0.0, 0.0)",0.642023,-0.696581,0.25129,"(0.0, 0.0, 0.0, 0.0, 0.0, 0.0, 0.0, 0.0, 0.0)",9.878,0.337,-5.987,"(0.0, 0.0, 0.0, 0.0, 0.0, 0.0, 0.0, 0.0, 0.0)",0,0,0,,0.4276,-0.0696,0.5129,"(0.0, 0.0, 0.0, 0.0, 0.0, 0.0, 0.0, 0.0, 0.0)","b'$VNYMR,+091.657,+007.959,+016.487,+00.4276,-00.0696,+00.5129,+09.878,+00.337,-05.987,+00.642023,-00.696581,+00.251292*6A\r\n'"
1678251223.0354998,192,1678251223,14463424,IMU1_Frame,0,0,0,,0.06914926592733564,0.14588325551062792,0.7015648931411159,0.6940771970719294,"(0.0, 0.0, 0.0, 0.0, 0.0, 0.0, 0.0, 0.0, 0.0)",0.821632,-1.57551,0.2995,"(0.0, 0.0, 0.0, 0.0, 0.0, 0.0, 0.0, 0.0, 0.0)",11.037,-2.554,-8.053,"(0.0, 0.0, 0.0, 0.0, 0.0, 0.0, 0.0, 0.0, 0.0)",0,0,0,,0.2122,0.366,0.1855,"(0.0, 0.0, 0.0, 0.0, 0.0, 0.0, 0.0, 0.0, 0.0)","b'$VNYMR,+091.553,+006.055,+017.600,+00.2122,+00.3660,+00.1855,+11.037,-02.554,-08.053,+00.821632,-01.575510,+00.299507*6E\r\n'"
1678251223.079458,193,1678251223,39456844,IMU1_Frame,0,0,0,,0.08666248988883837,0.13782395095214112,0.702257183175585,0.693057732132397,"(0.0, 0.0, 0.0, 0.0, 0.0, 0.0, 0.0, 0.0, 0.0)",0.334882,-1.243064,0.35228,"(0.0, 0.0, 0.0, 0.0, 0.0, 0.0, 0.0, 0.0, 0.0)",11.758,-3.325,-10.089,"(0.0, 0.0, 0.0, 0.0, 0.0, 0.0, 0.0, 0.0, 0.0)",0,0,0,,-0.2596,0.1582,0.2872,"(0.0, 0.0, 0.0, 0.0, 0.0, 0.0, 0.0, 0.0, 0.0)","b'$VNYMR,+091.397,+003.975,+018.328,-00.2596,+00.1582,+00.2872,+11.758,-03.325,-10.089,+00.334882,-01.243064,+00.352282*6B\r\n'"
1678251223.079492,194,1678251223,64320802,IMU1_Frame,0,0,0,,0.09961348730483244,0.13095015329991294,0.7026798065810859,0.6922212795926365,"(0.0, 0.0, 0.0, 0.0, 0.0, 0.0, 0.0, 0.0, 0.0)",0.428101,-1.010887,0.19184,"(0.0, 0.0, 0.0, 0.0, 0.0, 0.0, 0.0, 0.0, 0.0)",11.994,-3.775,-11.447,"(0.0, 0.0, 0.0, 0.0, 0.0, 0.0, 0.0, 0.0, 0.0)",0,0,0,,-0.215,-0.0548,0.4722,"(0.0, 0.0, 0.0, 0.0, 0.0, 0.0, 0.0, 0.0, 0.0)","b'$VNYMR,+091.251,+002.367,+018.797,-00.2150,-00.0548,+00.4722,+11.994,-03.775,-11.447,+00.428101,-01.010887,+00.191840*63\r\n'"
1678251223.1234133,195,1678251223,89510440,IMU1_Frame,0,0,0,,0.11449928996839846,0.12667922791118627,0.7020715831869541,0.6913304404508182,"(0.0, 0.0, 0.0, 0.0, 0.0, 0.0, 0.0, 0.0, 0.0)",0.630042,-1.014861,0.27172,"(0.0, 0.0, 0.0, 0.0, 0.0, 0.0, 0.0, 0.0, 0.0)",14.242,-0.293,-13.487,"(0.0, 0.0, 0.0, 0.0, 0.0, 0.0, 0.0, 0.0, 0.0)",0,0,0,,-0.1596,-0.0941,0.5261,"(0.0, 0.0, 0.0, 0.0, 0.0, 0.0, 0.0, 0.0, 0.0)","b'$VNYMR,+091.026,+000.824,+019.647,-00.1596,-00.0941,+00.5261,+14.242,-00.293,-13.487,+00.630042,-01.014861,+00.271729*60\r\n'"
1678251223.1291707,196,1678251223,114422559,IMU1_Frame,0,0,0,,0.1180439458374633,0.12427972314732005,0.703977266934837,0.6892286883934132,"(0.0, 0.0, 0.0, 0.0, 0.0, 0.0, 0.0, 0.0, 0.0)",-0.47468,0.296976,0.25778,"(0.0, 0.0, 0.0, 0.0, 0.0, 0.0, 0.0, 0.0, 0.0)",13.008,-0.442,-13.402,"(0.0, 0.0, 0.0, 0.0, 0.0, 0.0, 0.0, 0.0, 0.0)",0,0,0,,-0.1555,-0.1031,0.5237,"(0.0, 0.0, 0.0, 0.0, 0.0, 0.0, 0.0, 0.0, 0.0)","b'$VNYMR,+091.264,+000.293,+019.737,-00.1555,-00.1031,+00.5237,+13.008,-00.442,-13.402,-00.474680,+00.296976,+00.257786*6E\r\n'"
1678251223.171379,197,1678251223,139535903,IMU1_Frame,0,0,0,,0.10536375139363861,0.12409328768448141,0.7090754131104512,0.6860841015255774,"(0.0, 0.0, 0.0, 0.0, 0.0, 0.0, 0.0, 0.0, 0.0)",-0.711537,0.922447,0.45468,"(0.0, 0.0, 0.0, 0.0, 0.0, 0.0, 0.0, 0.0, 0.0)",9.496,-1.138,-9.48,"(0.0, 0.0, 0.0, 0.0, 0.0, 0.0, 0.0, 0.0, 0.0)",0,0,0,,-0.1777,-0.1015,0.5194,"(0.0, 0.0, 0.0, 0.0, 0.0, 0.0, 0.0, 0.0, 0.0)","b'$VNYMR,+092.085,+001.195,+018.701,-00.1777,-00.1015,+00.5194,+09.496,-01.138,-09.480,-00.711537,+00.922447,+00.454682*6A\r\n'"
1678251223.2153594,198,1678251223,164233207,IMU1_Frame,0,0,0,,0.09645972308519578,0.12625505912160145,0.7153516865659865,0.6804609808032545,"(0.0, 0.0, 0.0, 0.0, 0.0, 0.0, 0.0, 0.0, 0.0)",-0.115626,0.476637,0.58334,"(0.0, 0.0, 0.0, 0.0, 0.0, 0.0, 0.0, 0.0, 0.0)",7.019,-2.46,-5.326,"(0.0, 0.0, 0.0, 0.0, 0.0, 0.0, 0.0, 0.0, 0.0)",0,0,0,,-0.1918,-0.0632,0.4881,"(0.0, 0.0, 0.0, 0.0, 0.0, 0.0, 0.0, 0.0, 0.0)","b'$VNYMR,+093.174,+001.938,+018.185,-00.1918,-00.0632,+00.4881,+07.019,-02.460,-05.326,-00.115626,+00.476637,+00.583346*67\r\n'"
1678251223.215408,199,1678251223,189446926,IMU1_Frame,0,0,0,,0.09569448643025745,0.1254434449901639,0.720623987050101,0.6751352284275092,"(0.0, 0.0, 0.0, 0.0, 0.0, 0.0, 0.0, 0.0, 0.0)",-0.375941,0.007617,0.49461,"(0.0, 0.0, 0.0, 0.0, 0.0, 0.0, 0.0, 0.0, 0.0)",6.543,-3.756,-5.214,"(0.0, 0.0, 0.0, 0.0, 0.0, 0.0, 0.0, 0.0, 0.0)",0,0,0,,-0.1743,0.0145,0.3962,"(0.0, 0.0, 0.0, 0.0, 0.0, 0.0, 0.0, 0.0, 0.0)","b'$VNYMR,+094.020,+001.803,+018.069,-00.1743,+00.0145,+00.3962,+06.543,-03.756,-05.214,-00.375941,+00.007617,+00.494616*61\r\n'"
1678251223.2593591,200,1678251223,214297533,IMU1_Frame,0,0,0,,0.08433611518362852,0.11891896116012292,0.7233122967250564,0.674955570210851,"(0.0, 0.0, 0.0, 0.0, 0.0, 0.0, 0.0, 0.0, 0.0)",-1.169016,0.513596,-0.15695,"(0.0, 0.0, 0.0, 0.0, 0.0, 0.0, 0.0, 0.0, 0.0)",6.869,-4.664,-8.777,"(0.0, 0.0, 0.0, 0.0, 0.0, 0.0, 0.0, 0.0, 0.0)",0,0,0,,-0.0315,0.1437,0.2279,"(0.0, 0.0, 0.0, 0.0, 0.0, 0.0, 0.0, 0.0, 0.0)","b'$VNYMR,+094.284,+002.208,+016.624,-00.0315,+00.1437,+00.2279,+06.869,-04.664,-08.777,-01.169016,+00.513596,-00.156959*60\r\n'"
1678251223.2594063,201,1678251223,239354372,IMU1_Frame,0,0,0,,0.0703961552717034,0.11864758486781735,0.7224355876404811,0.6775352047226393,"(0.0, 0.0, 0.0, 0.0, 0.0, 0.0, 0.0, 0.0, 0.0)",-0.413708,0.62111,-0.20676,"(0.0, 0.0, 0.0, 0.0, 0.0, 0.0, 0.0, 0.0, 0.0)",8.075,-1.366,-6.67,"(0.0, 0.0, 0.0, 0.0, 0.0, 0.0, 0.0, 0.0, 0.0)",0,0,0,,0.3635,0.1105,0.2667,"(0.0, 0.0, 0.0, 0.0, 0.0, 0.0, 0.0, 0.0, 0.0)","b'$VNYMR,+094.135,+003.386,+015.503,+00.3635,+00.1105,+00.2667,+08.075,-01.366,-06.670,-00.413708,+00.621110,-00.206764*69\r\n'"
1678251223.3034735,202,1678251223,264202356,IMU1_Frame,0,0,0,,0.07488035545855624,0.11919052699085488,0.7237073516077294,0.6755991562094857,"(0.0, 0.0, 0.0, 0.0, 0.0, 0.0, 0.0, 0.0, 0.0)",-1.059812,-0.220996,1.68262,"(0.0, 0.0, 0.0, 0.0, 0.0, 0.0, 0.0, 0.0, 0.0)",11.185,6.492,-6.356,"(0.0, 0.0, 0.0, 0.0, 0.0, 0.0, 0.0, 0.0, 0.0)",0,0,0,,0.4608,-0.1763,0.497,"(0.0, 0.0, 0.0, 0.0, 0.0, 0.0, 0.0, 0.0, 0.0)","b'$VNYMR,+094.360,+003.019,+015.907,+00.4608,-00.1763,+00.4970,+11.185,+06.492,-06.356,-01.059812,-00.220996,+01.682629*67\r\n'"
1678251223.3041177,203,1678251223,289369106,IMU1_Frame,0,0,0,,0.0638287906450131,0.10885882785607354,0.7390100870414327,0.6617701506819501,"(0.0, 0.0, 0.0, 0.0, 0.0, 0.0, 0.0, 0.0, 0.0)",-0.594896,0.138,0.75913,"(0.0, 0.0, 0.0, 0.0, 0.0, 0.0, 0.0, 0.0, 0.0)",4.41,-4.584,-12.174,"(0.0, 0.0, 0.0, 0.0, 0.0, 0.0, 0.0, 0.0, 0.0)",0,0,0,,0.2926,-0.3838,0.5855,"(0.0, 0.0, 0.0, 0.0, 0.0, 0.0, 0.0, 0.0, 0.0)","b'$VNYMR,+096.668,+002.851,+014.222,+00.2926,-00.3838,+00.5855,+04.410,-04.584,-12.174,-00.594896,+00.138000,+00.759134*67\r\n'"
1678251223.347394,204,1678251223,314164638,IMU1_Frame,0,0,0,,0.06487896834210227,0.1072503295380288,0.7458026683436361,0.6542678856342875,"(0.0, 0.0, 0.0, 0.0, 0.0, 0.0, 0.0, 0.0, 0.0)",-0.035901,0.103263,1.05149,"(0.0, 0.0, 0.0, 0.0, 0.0, 0.0, 0.0, 0.0, 0.0)",3.869,-3.272,-17.06,"(0.0, 0.0, 0.0, 0.0, 0.0, 0.0, 0.0, 0.0, 0.0)",0,0,0,,0.1531,-0.4695,0.62,"(0.0, 0.0, 0.0, 0.0, 0.0, 0.0, 0.0, 0.0, 0.0)","b'$VNYMR,+097.792,+002.497,+014.188,+00.1531,-00.4695,+00.6200,+03.869,-03.272,-17.060,-00.035901,+00.103263,+01.051499*66\r\n'"
1678251223.3915381,205,1678251223,339361906,IMU1_Frame,0,0,0,,0.05461754977007699,0.11165598952236316,0.7516384696147604,0.6477572649195655,"(0.0, 0.0, 0.0, 0.0, 0.0, 0.0, 0.0, 0.0, 0.0)",-0.671733,1.593369,0.45851,"(0.0, 0.0, 0.0, 0.0, 0.0, 0.0, 0.0, 0.0, 0.0)",3.401,-3.44,-18.069,"(0.0, 0.0, 0.0, 0.0, 0.0, 0.0, 0.0, 0.0, 0.0)",0,0,0,,0.0359,-0.4967,0.6366,"(0.0, 0.0, 0.0, 0.0, 0.0, 0.0, 0.0, 0.0, 0.0)","b'$VNYMR,+098.926,+003.586,+013.832,+00.0359,-00.4967,+00.6366,+03.401,-03.440,-18.069,-00.671733,+01.593369,+00.458512*6E\r\n'"
1678251223.3915935,206,1678251223,364211797,IMU1_Frame,0,0,0,,0.024773116228041132,0.11881804523748993,0.7557064608640667,0.64356531125178,"(0.0, 0.0, 0.0, 0.0, 0.0, 0.0, 0.0, 0.0, 0.0)",-1.522594,2.486242,0.03978,"(0.0, 0.0, 0.0, 0.0, 0.0, 0.0, 0.0, 0.0, 0.0)",2.701,-3.042,-9.649,"(0.0, 0.0, 0.0, 0.0, 0.0, 0.0, 0.0, 0.0, 0.0)",0,0,0,,-0.0652,-0.5154,0.6306,"(0.0, 0.0, 0.0, 0.0, 0.0, 0.0, 0.0, 0.0, 0.0)","b'$VNYMR,+099.879,+006.632,+012.292,-00.0652,-00.5154,+00.6306,+02.701,-03.042,-09.649,-01.522594,+02.486242,+00.039784*60\r\n'"
1678251223.4355285,207,1678251223,389117717,IMU1_Frame,0,0,0,,0.001908307450488006,0.11961352770685521,0.755566927999434,0.6440555718769101,"(0.0, 0.0, 0.0, 0.0, 0.0, 0.0, 0.0, 0.0, 0.0)",-0.495249,0.159692,-0.27071,"(0.0, 0.0, 0.0, 0.0, 0.0, 0.0, 0.0, 0.0, 0.0)",1.608,0.925,-1.908,"(0.0, 0.0, 0.0, 0.0, 0.0, 0.0, 0.0, 0.0, 0.0)",0,0,0,,-0.1321,-0.5159,0.6278,"(0.0, 0.0, 0.0, 0.0, 0.0, 0.0, 0.0, 0.0, 0.0)","b'$VNYMR,+099.925,+008.696,+010.681,-00.1321,-00.5159,+00.6278,+01.608,+00.925,-01.908,-00.495249,+00.159692,-00.270716*68\r\n'"
1678251223.4355686,208,1678251223,414117574,IMU1_Frame,0,0,0,,0.00845419318204263,0.10689102935808908,0.7573534254876114,0.6441417727197871,"(0.0, 0.0, 0.0, 0.0, 0.0, 0.0, 0.0, 0.0, 0.0)",-0.384935,-1.417076,0.23945,"(0.0, 0.0, 0.0, 0.0, 0.0, 0.0, 0.0, 0.0, 0.0)",1.285,-2.686,-9.019,"(0.0, 0.0, 0.0, 0.0, 0.0, 0.0, 0.0, 0.0, 0.0)",0,0,0,,-0.163,-0.5263,0.6424,"(0.0, 0.0, 0.0, 0.0, 0.0, 0.0, 0.0, 0.0, 0.0)","b'$VNYMR,+099.867,+007.175,+010.030,-00.1630,-00.5263,+00.6424,+01.285,-02.686,-09.019,-00.384935,-01.417076,+00.239452*6F\r\n'"
1678251223.4793396,209,1678251223,439328432,IMU1_Frame,0,0,0,,0.00641212819165371,0.09535741767366562,0.7572217226700364,0.6461277816525819,"(0.0, 0.0, 0.0, 0.0, 0.0, 0.0, 0.0, 0.0, 0.0)",-1.074238,0.243445,-0.13015,"(0.0, 0.0, 0.0, 0.0, 0.0, 0.0, 0.0, 0.0, 0.0)",0.138,-0.775,-12.735,"(0.0, 0.0, 0.0, 0.0, 0.0, 0.0, 0.0, 0.0, 0.0)",0,0,0,,-0.2057,-0.5364,0.6453,"(0.0, 0.0, 0.0, 0.0, 0.0, 0.0, 0.0, 0.0, 0.0)","b'$VNYMR,+099.557,+006.518,+008.841,-00.2057,-00.5364,+00.6453,+00.138,-00.775,-12.735,-01.074238,+00.243445,-00.130152*64\r\n'"
1678251223.4793804,210,1678251223,464073657,IMU1_Frame,0,0,0,,-0.008228951958112421,0.08865629328654369,0.7583514889523247,0.6457362969619669,"(0.0, 0.0, 0.0, 0.0, 0.0, 0.0, 0.0, 0.0, 0.0)",-0.841944,0.335094,0.06981,"(0.0, 0.0, 0.0, 0.0, 0.0, 0.0, 0.0, 0.0, 0.0)",-3.926,-0.603,-7.197,"(0.0, 0.0, 0.0, 0.0, 0.0, 0.0, 0.0, 0.0, 0.0)",0,0,0,,-0.2981,-0.5442,0.6534,"(0.0, 0.0, 0.0, 0.0, 0.0, 0.0, 0.0, 0.0, 0.0)","b'$VNYMR,+099.629,+007.295,+007.172,-00.2981,-00.5442,+00.6534,-03.926,-00.603,-07.197,-00.841944,+00.335094,+00.069817*66\r\n'"
1678251223.5273678,211,1678251223,489197254,IMU1_Frame,0,0,0,,0.0034309039165218713,0.08578468844839846,0.7572768338469011,0.6474264537728897,"(0.0, 0.0, 0.0, 0.0, 0.0, 0.0, 0.0, 0.0, 0.0)",1.071375,-1.527938,-0.22106,"(0.0, 0.0, 0.0, 0.0, 0.0, 0.0, 0.0, 0.0, 0.0)",-8.478,-0.059,-7.576,"(0.0, 0.0, 0.0, 0.0, 0.0, 0.0, 0.0, 0.0, 0.0)",0,0,0,,-0.4013,-0.486,0.7114,"(0.0, 0.0, 0.0, 0.0, 0.0, 0.0, 0.0, 0.0, 0.0)","b'$VNYMR,+099.356,+006.078,+007.766,-00.4013,-00.4860,+00.7114,-08.478,-00.059,-07.576,+01.071375,-01.527938,-00.221065*65\r\n'"
1678251223.528928,212,1678251223,513978719,IMU1_Frame,0,0,0,,0.01486261141230948,0.07681182700484293,0.7551722953408107,0.6508408794504816,"(0.0, 0.0, 0.0, 0.0, 0.0, 0.0, 0.0, 0.0, 0.0)",-0.963394,-0.651192,-0.39641,"(0.0, 0.0, 0.0, 0.0, 0.0, 0.0, 0.0, 0.0, 0.0)",-8.994,-1.254,-10.59,"(0.0, 0.0, 0.0, 0.0, 0.0, 0.0, 0.0, 0.0, 0.0)",0,0,0,,-0.44,-0.3638,0.8503,"(0.0, 0.0, 0.0, 0.0, 0.0, 0.0, 0.0, 0.0, 0.0)","b'$VNYMR,+098.791,+004.447,+007.803,-00.4400,-00.3638,+00.8503,-08.994,-01.254,-10.590,-00.963394,-00.651192,-00.396414*6B\r\n'"
1678251223.5713966,213,1678251223,539311647,IMU1_Frame,0,0,0,,-0.004366181622381438,0.05783852457362698,0.750094841919245,0.6587817314250064,"(0.0, 0.0, 0.0, 0.0, 0.0, 0.0, 0.0, 0.0, 0.0)",-2.384133,0.352873,-1.05896,"(0.0, 0.0, 0.0, 0.0, 0.0, 0.0, 0.0, 0.0, 0.0)",-12.253,-0.879,-8.353,"(0.0, 0.0, 0.0, 0.0, 0.0, 0.0, 0.0, 0.0, 0.0)",0,0,0,,-0.3115,-0.3471,0.909,"(0.0, 0.0, 0.0, 0.0, 0.0, 0.0, 0.0, 0.0, 0.0)","b'$VNYMR,+097.610,+004.747,+004.663,-00.3115,-00.3471,+00.9090,-12.253,-00.879,-08.353,-02.384133,+00.352873,-01.058965*6F\r\n'"
1678251223.6154692,214,1678251223,563980102,IMU1_Frame,0,0,0,,-0.016745442306282773,0.03741616044638244,0.7436991467535875,0.6672564725931126,"(0.0, 0.0, 0.0, 0.0, 0.0, 0.0, 0.0, 0.0, 0.0)",-1.4333,-0.929208,-0.70076,"(0.0, 0.0, 0.0, 0.0, 0.0, 0.0, 0.0, 0.0, 0.0)",-11.721,1.487,-7.376,"(0.0, 0.0, 0.0, 0.0, 0.0, 0.0, 0.0, 0.0, 0.0)",0,0,0,,-0.1698,-0.4562,0.7991,"(0.0, 0.0, 0.0, 0.0, 0.0, 0.0, 0.0, 0.0, 0.0)","b'$VNYMR,+096.274,+004.292,+001.914,-00.1698,-00.4562,+00.7991,-11.721,+01.487,-07.376,-01.433300,-00.929208,-00.700765*65\r\n'"
1678251223.6155207,215,1678251223,588951587,IMU1_Frame,0,0,0,,-0.011869436367889629,0.01851447059358279,0.7404849144798747,0.6717130505555782,"(0.0, 0.0, 0.0, 0.0, 0.0, 0.0, 0.0, 0.0, 0.0)",-0.7404,-1.220468,-0.41004,"(0.0, 0.0, 0.0, 0.0, 0.0, 0.0, 0.0, 0.0, 0.0)",-9.23,0.021,-12.058,"(0.0, 0.0, 0.0, 0.0, 0.0, 0.0, 0.0, 0.0, 0.0)",0,0,0,,-0.1302,-0.5238,0.6762,"(0.0, 0.0, 0.0, 0.0, 0.0, 0.0, 0.0, 0.0, 0.0)","b'$VNYMR,+095.590,+002.433,+000.658,-00.1302,-00.5238,+00.6762,-09.230,+00.021,-12.058,-00.740400,-01.220468,-00.410042*66\r\n'"
1678251223.6593614,216,1678251223,613965272,IMU1_Frame,0,0,0,,-0.005437617921266664,0.007050300288878394,0.7381168168399765,0.6746141788275719,"(0.0, 0.0, 0.0, 0.0, 0.0, 0.0, 0.0, 0.0, 0.0)",0.126663,-0.83178,-0.18742,"(0.0, 0.0, 0.0, 0.0, 0.0, 0.0, 0.0, 0.0, 0.0)",-6.812,0.844,-13.637,"(0.0, 0.0, 0.0, 0.0, 0.0, 0.0, 0.0, 0.0, 0.0)",0,0,0,,-0.1305,-0.5494,0.6307,"(0.0, 0.0, 0.0, 0.0, 0.0, 0.0, 0.0, 0.0, 0.0)","b'$VNYMR,+095.149,+001.005,+000.176,-00.1305,-00.5494,+00.6307,-06.812,+00.844,-13.637,+00.126663,-00.831780,-00.187426*6B\r\n'"
1678251223.6594176,217,1678251223,638861894,IMU1_Frame,0,0,0,,0.005776187555764155,0.007812126741702229,0.7419697563197888,0.6703629517208164,"(0.0, 0.0, 0.0, 0.0, 0.0, 0.0, 0.0, 0.0, 0.0)",0.909555,-0.669822,0.79106,"(0.0, 0.0, 0.0, 0.0, 0.0, 0.0, 0.0, 0.0, 0.0)",-8.961,0.561,-10.598,"(0.0, 0.0, 0.0, 0.0, 0.0, 0.0, 0.0, 0.0, 0.0)",0,0,0,,-0.1421,-0.5391,0.6456,"(0.0, 0.0, 0.0, 0.0, 0.0, 0.0, 0.0, 0.0, 0.0)","b'$VNYMR,+095.806,+000.109,+001.108,-00.1421,-00.5391,+00.6456,-08.961,+00.561,-10.598,+00.909555,-00.669822,+00.791064*6B\r\n'"
1678251223.703422,218,1678251223,663902044,IMU1_Frame,0,0,0,,0.01860302672946224,0.011950081663400171,0.746307564886778,0.6652338998709467,"(0.0, 0.0, 0.0, 0.0, 0.0, 0.0, 0.0, 0.0, 0.0)",0.720971,-0.449771,0.24767,"(0.0, 0.0, 0.0, 0.0, 0.0, 0.0, 0.0, 0.0, 0.0)",-9.557,-1.564,-7.353,"(0.0, 0.0, 0.0, 0.0, 0.0, 0.0, 0.0, 0.0, 0.0)",0,0,0,,-0.1608,-0.5064,0.6969,"(0.0, 0.0, 0.0, 0.0, 0.0, 0.0, 0.0, 0.0, 0.0)","b'$VNYMR,+096.560,-000.680,+002.441,-00.1608,-00.5064,+00.6969,-09.557,-01.564,-07.353,+00.720971,-00.449771,+00.247672*6B\r\n'"
1678251223.7038293,219,1678251223,688968896,IMU1_Frame,0,0,0,,0.026782508414277227,0.012707384589271405,0.7462411061570904,0.6650153615529357,"(0.0, 0.0, 0.0, 0.0, 0.0, 0.0, 0.0, 0.0, 0.0)",0.352581,-0.317112,-0.12007,"(0.0, 0.0, 0.0, 0.0, 0.0, 0.0, 0.0, 0.0, 0.0)",-9.699,1.413,-9.88,"(0.0, 0.0, 0.0, 0.0, 0.0, 0.0, 0.0, 0.0, 0.0)",0,0,0,,-0.2012,-0.5022,0.7671,"(0.0, 0.0, 0.0, 0.0, 0.0, 0.0, 0.0, 0.0, 0.0)","b'$VNYMR,+096.552,-001.322,+003.130,-00.2012,-00.5022,+00.7671,-09.699,+01.413,-09.880,+00.352581,-00.317112,-00.120076*69\r\n'"
1678251223.7473738,220,1678251223,714561700,IMU1_Frame,0,0,0,,0.027549630110145867,0.01166023527590402,0.7444240002259374,0.6670367041488183,"(0.0, 0.0, 0.0, 0.0, 0.0, 0.0, 0.0, 0.0, 0.0)",-0.222742,0.129755,-0.40558,"(0.0, 0.0, 0.0, 0.0, 0.0, 0.0, 0.0, 0.0, 0.0)",-11.275,-1.251,-11.218,"(0.0, 0.0, 0.0, 0.0, 0.0, 0.0, 0.0, 0.0, 0.0)",0,0,0,,-0.2558,-0.5254,0.7902,"(0.0, 0.0, 0.0, 0.0, 0.0, 0.0, 0.0, 0.0, 0.0)","b'$VNYMR,+096.237,-001.459,+003.103,-00.2558,-00.5254,+00.7902,-11.275,-01.251,-11.218,-00.222742,+00.129755,-00.405585*64\r\n'"
1678251223.7953877,221,1678251223,738960742,IMU1_Frame,0,0,0,,0.017712931226057747,0.013587863445445844,0.7393819123008648,0.6729160495906494,"(0.0, 0.0, 0.0, 0.0, 0.0, 0.0, 0.0, 0.0, 0.0)",-0.619129,1.018675,-0.65227,"(0.0, 0.0, 0.0, 0.0, 0.0, 0.0, 0.0, 0.0, 0.0)",-11.378,-1.042,-10.315,"(0.0, 0.0, 0.0, 0.0, 0.0, 0.0, 0.0, 0.0, 0.0)",0,0,0,,-0.2747,-0.5839,0.7471,"(0.0, 0.0, 0.0, 0.0, 0.0, 0.0, 0.0, 0.0, 0.0)","b'$VNYMR,+095.379,-000.453,+002.518,-00.2747,-00.5839,+00.7471,-11.378,-01.042,-10.315,-00.619129,+01.018675,-00.652272*64\r\n'"
